Username,ID,ExperimentName,Session,Trial,Date,TimeDif,"Condition Number","Stimuli File","Order File","Condition Description","Condition Notes",Stimuli*Cue,Stimuli*Answer,Stimuli*Shuffle,"Stimuli*Stimuli Notes",Stimuli*Value,Procedure*Item,"Procedure*Trial Type","Procedure*Max Time","Procedure*Min Time",Procedure*Text,"Procedure*Procedure Notes",Procedure*Shuffle,"Procedure*Post 1 Item","Procedure*Post 1 Trial Type","Procedure*Post 1 Max Time","Procedure*Post 1 Min Time",Procedure*,"Procedure*Post 1 Text",Response*RT,Response*Response,Response*Accuracy,Response*RTfirst,Response*RTlast,Response*strictAcc,Response*lenientAcc,Response*focus,Response*post1_JOL,Response*post1_RT,Response*post1_RTfirst,Response*post1_RTlast,Response*Focus,Response*post1_Focus
w10090932,bq34jr07bv,Nick_Dissertation_EX2_EP,1,1,2022-04-04T01:23:03+00:00,15.669152021408,13,Mixed_Stim.csv,JOLVersionA.csv,"JOL Mixed A","JOL Mixed A",,,,,,0,Instruct,-,5,"In this section, you will be presented with a series of word pairs.",Initial_Instruct,Instruct1,,No,,,,,15361,,,-1,-1,,,,,,,,1
w10090932,bq34jr07bv,Nick_Dissertation_EX2_EP,1,2,2022-04-04T01:23:46+00:00,43.325917005539,13,Mixed_Stim.csv,JOLVersionA.csv,"JOL Mixed A","JOL Mixed A",,,,,,0,Instruct,-,5,"As you study, you will be asked to rate your ability to remember the second item in the pair if you were only shown the first at test, using a 0-100 scale.",,Instruct13,,No,,,,,42895,,,-1,-1,,,,,,,,1
w10090932,bq34jr07bv,Nick_Dissertation_EX2_EP,1,3,2022-04-04T01:24:04+00:00,17.885520935059,13,Mixed_Stim.csv,JOLVersionA.csv,"JOL Mixed A","JOL Mixed A",,,,,,0,Instruct,-,10,"For example, if you are given the pair CAT - DOG, a rating of 0 indicates that you would not remember DOG at test, while a rating of 100 indicates full certainty that you would remember the word DOG at test.",,Instruct14,,No,,,,,17504,,,-1,-1,,,,,,,,1
w10090932,bq34jr07bv,Nick_Dissertation_EX2_EP,1,4,2022-04-04T01:24:20+00:00,15.580871105194,13,Mixed_Stim.csv,JOLVersionA.csv,"JOL Mixed A","JOL Mixed A",,,,,,0,Instruct,-,15,"When making your ratings, it is criticial that you use the full range of the scale. You will be disqualified for only giving ratings of 0 or 100! Each word will be displayed on the computer screen for 4 seconds. You will then have 4 seconds to make your rating. The screen will automatically move to the next pair when time is up.",,Instruct15,,No,,,,,15195,,,-1,-1,,,,,,,,1
w10090932,bq34jr07bv,Nick_Dissertation_EX2_EP,1,5,2022-04-04T01:24:28+00:00,8.8227429389954,13,Mixed_Stim.csv,JOLVersionA.csv,"JOL Mixed A","JOL Mixed A",,,,,,0,Instruct,User,-,"You will now begin the study. Press Enter when you are ready to begin.",,Instruct16,,No,,,,,8231,,,-1,-1,,,,,,,,1
w10090932,bq34jr07bv,Nick_Dissertation_EX2_EP,1,6,2022-04-04T01:24:38+00:00,9.7880699634552,13,Mixed_Stim.csv,JOLVersionA.csv,"JOL Mixed A","JOL Mixed A",PEANUT,BUTTER,BUFFER1,Buffer,3,4,Study,4,4,,Study/JOL,BUFFER,4,JOL,5,5,,"How likely are you to correctly recall the second item in the pair?|Type your response on a scale from 0-100 and then press Enter.",4002,,,-1,-1,,,,,5010,-1,-1,1,1
w10090932,bq34jr07bv,Nick_Dissertation_EX2_EP,1,7,2022-04-04T01:24:48+00:00,9.9838681221008,13,Mixed_Stim.csv,JOLVersionA.csv,"JOL Mixed A","JOL Mixed A",BASEBALL,CATCHER,BUFFER1,Buffer,2,5,Study,4,4,,Study/JOL,BUFFER,5,JOL,5,5,,"How likely are you to correctly recall the second item in the pair?|Type your response on a scale from 0-100 and then press Enter.",4002,,,-1,-1,,,,100,5009,1523,1980,1,1
w10090932,bq34jr07bv,Nick_Dissertation_EX2_EP,1,8,2022-04-04T01:24:58+00:00,9.7877249717712,13,Mixed_Stim.csv,JOLVersionA.csv,"JOL Mixed A","JOL Mixed A",SCARE,HIDE,BUFFER1,Buffer,4,3,Study,4,4,,Study/JOL,BUFFER,3,JOL,5,5,,"How likely are you to correctly recall the second item in the pair?|Type your response on a scale from 0-100 and then press Enter.",4013,,,-1,-1,,,,100,5010,2241,2866,1,1
w10090932,bq34jr07bv,Nick_Dissertation_EX2_EP,1,9,2022-04-04T01:25:08+00:00,9.8018229007721,13,Mixed_Stim.csv,JOLVersionA.csv,"JOL Mixed A","JOL Mixed A",SPACE,JAM,BUFFER1,Buffer,5,6,Study,4,4,,Study/JOL,BUFFER,6,JOL,5,5,,"How likely are you to correctly recall the second item in the pair?|Type your response on a scale from 0-100 and then press Enter.",4002,,,-1,-1,,,,100,5011,666,1588,1,1
w10090932,bq34jr07bv,Nick_Dissertation_EX2_EP,1,10,2022-04-04T01:25:18+00:00,9.7997300624847,13,Mixed_Stim.csv,JOLVersionA.csv,"JOL Mixed A","JOL Mixed A",TREES,GREEN,BUFFER1,Buffer,1,2,Study,4,4,,Study/JOL,BUFFER,2,JOL,5,5,,"How likely are you to correctly recall the second item in the pair?|Type your response on a scale from 0-100 and then press Enter.",4003,,,-1,-1,,,,100,5010,2360,2967,1,1
w10090932,bq34jr07bv,Nick_Dissertation_EX2_EP,1,11,2022-04-04T01:25:27+00:00,9.7987039089203,13,Mixed_Stim.csv,JOLVersionA.csv,"JOL Mixed A","JOL Mixed A",DISCUSSION,TALK,Study1,F,21,21,Study,4,4,,Study/JOL,"Study Phase",21,JOL,5,5,,"How likely are you to correctly recall the second item in the pair?|Type your response on a scale from 0-100 and then press Enter.",4005,,,-1,-1,,,,95,5010,864,1027,1,1
w10090932,bq34jr07bv,Nick_Dissertation_EX2_EP,1,12,2022-04-04T01:25:37+00:00,9.8070940971375,13,Mixed_Stim.csv,JOLVersionA.csv,"JOL Mixed A","JOL Mixed A",VALLEY,ADD,Study1,U,82,41,Study,4,4,,Study/JOL,"Study Phase",41,JOL,5,5,,"How likely are you to correctly recall the second item in the pair?|Type your response on a scale from 0-100 and then press Enter.",4002,,,-1,-1,,,,80,5010,1257,1705,1,1
w10090932,bq34jr07bv,Nick_Dissertation_EX2_EP,1,13,2022-04-04T01:25:47+00:00,9.7881798744202,13,Mixed_Stim.csv,JOLVersionA.csv,"JOL Mixed A","JOL Mixed A",MACHINE,POSITION,Study1,U,76,38,Study,4,4,,Study/JOL,"Study Phase",38,JOL,5,5,,"How likely are you to correctly recall the second item in the pair?|Type your response on a scale from 0-100 and then press Enter.",4002,,,-1,-1,,,,85,5010,2126,2785,1,1
w10090932,bq34jr07bv,Nick_Dissertation_EX2_EP,1,14,2022-04-04T01:25:57+00:00,9.8117911815643,13,Mixed_Stim.csv,JOLVersionA.csv,"JOL Mixed A","JOL Mixed A",HORNET,STING,Study1,F,11,26,Study,4,4,,Study/JOL,"Study Phase",26,JOL,5,5,,"How likely are you to correctly recall the second item in the pair?|Type your response on a scale from 0-100 and then press Enter.",4004,,,-1,-1,,,,100,5011,426,767,1,1
w10090932,bq34jr07bv,Nick_Dissertation_EX2_EP,1,15,2022-04-04T01:26:07+00:00,9.8121860027313,13,Mixed_Stim.csv,JOLVersionA.csv,"JOL Mixed A","JOL Mixed A",HERD,COW,Study1,F,22,33,Study,4,4,,Study/JOL,"Study Phase",33,JOL,5,5,,"How likely are you to correctly recall the second item in the pair?|Type your response on a scale from 0-100 and then press Enter.",4003,,,-1,-1,,,,95,5011,1360,1806,1,1
w10090932,bq34jr07bv,Nick_Dissertation_EX2_EP,1,16,2022-04-04T01:26:16+00:00,9.8171269893646,13,Mixed_Stim.csv,JOLVersionA.csv,"JOL Mixed A","JOL Mixed A",FIX,HAND,Study1,U,75,24,Study,4,4,,Study/JOL,"Study Phase",24,JOL,5,5,,"How likely are you to correctly recall the second item in the pair?|Type your response on a scale from 0-100 and then press Enter.",4004,,,-1,-1,,,,85,5009,1612,2002,1,1
w10090932,bq34jr07bv,Nick_Dissertation_EX2_EP,1,17,2022-04-04T01:26:26+00:00,9.8016278743744,13,Mixed_Stim.csv,JOLVersionA.csv,"JOL Mixed A","JOL Mixed A",TUNA,FISH,Study1,F,25,36,Study,4,4,,Study/JOL,"Study Phase",36,JOL,5,5,,"How likely are you to correctly recall the second item in the pair?|Type your response on a scale from 0-100 and then press Enter.",4003,,,-1,-1,,,,100,5011,1114,1553,1,1
w10090932,bq34jr07bv,Nick_Dissertation_EX2_EP,1,18,2022-04-04T01:26:36+00:00,9.778412103653,13,Mixed_Stim.csv,JOLVersionA.csv,"JOL Mixed A","JOL Mixed A",GEOLOGY,ROCK,Study1,F,19,29,Study,4,4,,Study/JOL,"Study Phase",29,JOL,5,5,,"How likely are you to correctly recall the second item in the pair?|Type your response on a scale from 0-100 and then press Enter.",4009,,,-1,-1,,,,75,5012,810,1144,1,1
w10090932,bq34jr07bv,Nick_Dissertation_EX2_EP,1,19,2022-04-04T01:26:46+00:00,9.8201329708099,13,Mixed_Stim.csv,JOLVersionA.csv,"JOL Mixed A","JOL Mixed A",CASH,WOULD,Study1,U,83,43,Study,4,4,,Study/JOL,"Study Phase",43,JOL,5,5,,"How likely are you to correctly recall the second item in the pair?|Type your response on a scale from 0-100 and then press Enter.",4011,,,-1,-1,,,,60,5009,1247,1394,1,1
w10090932,bq34jr07bv,Nick_Dissertation_EX2_EP,1,20,2022-04-04T01:26:56+00:00,9.7934930324554,13,Mixed_Stim.csv,JOLVersionA.csv,"JOL Mixed A","JOL Mixed A",DIETARY,SACKING,Study1,U,67,39,Study,4,4,,Study/JOL,"Study Phase",39,JOL,5,5,,"How likely are you to correctly recall the second item in the pair?|Type your response on a scale from 0-100 and then press Enter.",4001,,,-1,-1,,,,50,5009,523,637,1,1
w10090932,bq34jr07bv,Nick_Dissertation_EX2_EP,1,21,2022-04-04T01:27:06+00:00,10.57276892662,13,Mixed_Stim.csv,JOLVersionA.csv,"JOL Mixed A","JOL Mixed A",STRONG,ACCIDENT,Study1,U,80,35,Study,4,4,,Study/JOL,"Study Phase",35,JOL,5,5,,"How likely are you to correctly recall the second item in the pair?|Type your response on a scale from 0-100 and then press Enter.",4002,,,-1,-1,,,,65,5010,978,1159,1,1
w10090932,bq34jr07bv,Nick_Dissertation_EX2_EP,1,22,2022-04-04T01:27:16+00:00,9.8027400970459,13,Mixed_Stim.csv,JOLVersionA.csv,"JOL Mixed A","JOL Mixed A",DEBATE,SIGHT,Study1,U,73,14,Study,4,4,,Study/JOL,"Study Phase",14,JOL,5,5,,"How likely are you to correctly recall the second item in the pair?|Type your response on a scale from 0-100 and then press Enter.",4015,,,-1,-1,,,,50,5009,1963,2174,1,1
w10090932,bq34jr07bv,Nick_Dissertation_EX2_EP,1,23,2022-04-04T01:27:26+00:00,9.7815408706665,13,Mixed_Stim.csv,JOLVersionA.csv,"JOL Mixed A","JOL Mixed A",DIGESTION,STOMACH,Study1,F,7,20,Study,4,4,,Study/JOL,"Study Phase",20,JOL,5,5,,"How likely are you to correctly recall the second item in the pair?|Type your response on a scale from 0-100 and then press Enter.",4002,,,-1,-1,,,,100,5010,1438,1897,1,1
w10090932,bq34jr07bv,Nick_Dissertation_EX2_EP,1,24,2022-04-04T01:27:36+00:00,9.8031671047211,13,Mixed_Stim.csv,JOLVersionA.csv,"JOL Mixed A","JOL Mixed A",SOON,BELT,Study1,U,70,34,Study,4,4,,Study/JOL,"Study Phase",34,JOL,5,5,,"How likely are you to correctly recall the second item in the pair?|Type your response on a scale from 0-100 and then press Enter.",4004,,,-1,-1,,,,25,5009,548,719,1,1
w10090932,bq34jr07bv,Nick_Dissertation_EX2_EP,1,25,2022-04-04T01:27:45+00:00,9.8117549419403,13,Mixed_Stim.csv,JOLVersionA.csv,"JOL Mixed A","JOL Mixed A",LIFT,WOMAN,Study1,U,69,8,Study,4,4,,Study/JOL,"Study Phase",8,JOL,5,5,,"How likely are you to correctly recall the second item in the pair?|Type your response on a scale from 0-100 and then press Enter.",4002,,,-1,-1,,,,30,5014,414,1047,1,1
w10090932,bq34jr07bv,Nick_Dissertation_EX2_EP,1,26,2022-04-04T01:27:55+00:00,9.7978119850159,13,Mixed_Stim.csv,JOLVersionA.csv,"JOL Mixed A","JOL Mixed A",HYGIENE,CLEAN,Study1,F,17,28,Study,4,4,,Study/JOL,"Study Phase",28,JOL,5,5,,"How likely are you to correctly recall the second item in the pair?|Type your response on a scale from 0-100 and then press Enter.",4002,,,-1,-1,,,,100,5009,806,1622,1,1
w10090932,bq34jr07bv,Nick_Dissertation_EX2_EP,1,27,2022-04-04T01:28:05+00:00,9.7997889518738,13,Mixed_Stim.csv,JOLVersionA.csv,"JOL Mixed A","JOL Mixed A",BRIDGE,WATER,Study1,F,18,40,Study,4,4,,Study/JOL,"Study Phase",40,JOL,5,5,,"How likely are you to correctly recall the second item in the pair?|Type your response on a scale from 0-100 and then press Enter.",4003,,,-1,-1,,,,90,5009,648,1597,1,1
w10090932,bq34jr07bv,Nick_Dissertation_EX2_EP,1,28,2022-04-04T01:28:15+00:00,9.7878620624542,13,Mixed_Stim.csv,JOLVersionA.csv,"JOL Mixed A","JOL Mixed A",SUGAR,RIDDLE,Study1,U,81,42,Study,4,4,,Study/JOL,"Study Phase",42,JOL,5,5,,"How likely are you to correctly recall the second item in the pair?|Type your response on a scale from 0-100 and then press Enter.",4005,,,-1,-1,,,,10,5009,880,1644,1,1
w10090932,bq34jr07bv,Nick_Dissertation_EX2_EP,1,29,2022-04-04T01:28:24+00:00,9.7837040424347,13,Mixed_Stim.csv,JOLVersionA.csv,"JOL Mixed A","JOL Mixed A",BITTER,COLD,Study1,F,12,25,Study,4,4,,Study/JOL,"Study Phase",25,JOL,5,5,,"How likely are you to correctly recall the second item in the pair?|Type your response on a scale from 0-100 and then press Enter.",4002,,,-1,-1,,,,20,5009,1144,1760,1,1
w10090932,bq34jr07bv,Nick_Dissertation_EX2_EP,1,30,2022-04-04T01:28:34+00:00,9.7922599315643,13,Mixed_Stim.csv,JOLVersionA.csv,"JOL Mixed A","JOL Mixed A",KING,VASE,Study1,U,85,17,Study,4,4,,Study/JOL,"Study Phase",17,JOL,5,5,,"How likely are you to correctly recall the second item in the pair?|Type your response on a scale from 0-100 and then press Enter.",4005,,,-1,-1,,,,25,5009,691,1194,1,1
w10090932,bq34jr07bv,Nick_Dissertation_EX2_EP,1,31,2022-04-04T01:28:44+00:00,9.7814619541168,13,Mixed_Stim.csv,JOLVersionA.csv,"JOL Mixed A","JOL Mixed A",HIDE,SICK,Study1,U,84,32,Study,4,4,,Study/JOL,"Study Phase",32,JOL,5,5,,"How likely are you to correctly recall the second item in the pair?|Type your response on a scale from 0-100 and then press Enter.",4001,,,-1,-1,,,,25,5010,1679,2084,1,1
w10090932,bq34jr07bv,Nick_Dissertation_EX2_EP,1,32,2022-04-04T01:28:54+00:00,10.013118982315,13,Mixed_Stim.csv,JOLVersionA.csv,"JOL Mixed A","JOL Mixed A",REVOLUTION,WAR,Study1,F,20,9,Study,4,4,,Study/JOL,"Study Phase",9,JOL,5,5,,"How likely are you to correctly recall the second item in the pair?|Type your response on a scale from 0-100 and then press Enter.",4005,,,-1,-1,,,,75,5020,1635,1912,1,1
w10090932,bq34jr07bv,Nick_Dissertation_EX2_EP,1,33,2022-04-04T01:29:04+00:00,9.7783920764923,13,Mixed_Stim.csv,JOLVersionA.csv,"JOL Mixed A","JOL Mixed A",ARTERY,BRONZE,Study1,U,74,23,Study,4,4,,Study/JOL,"Study Phase",23,JOL,5,5,,"How likely are you to correctly recall the second item in the pair?|Type your response on a scale from 0-100 and then press Enter.",4002,,,-1,-1,,,,25,5010,1415,2349,1,1
w10090932,bq34jr07bv,Nick_Dissertation_EX2_EP,1,34,2022-04-04T01:29:14+00:00,10.059246063232,13,Mixed_Stim.csv,JOLVersionA.csv,"JOL Mixed A","JOL Mixed A",HAPPY,CAR,Study1,U,77,22,Study,4,4,,Study/JOL,"Study Phase",22,JOL,5,5,,"How likely are you to correctly recall the second item in the pair?|Type your response on a scale from 0-100 and then press Enter.",4002,,,-1,-1,,,,15,5010,2707,2928,1,1
w10090932,bq34jr07bv,Nick_Dissertation_EX2_EP,1,35,2022-04-04T01:29:24+00:00,9.7864768505096,13,Mixed_Stim.csv,JOLVersionA.csv,"JOL Mixed A","JOL Mixed A",CREDIT,CARD,Study1,F,23,31,Study,4,4,,Study/JOL,"Study Phase",31,JOL,5,5,,"How likely are you to correctly recall the second item in the pair?|Type your response on a scale from 0-100 and then press Enter.",4002,,,-1,-1,,,,100,5009,483,787,1,1
w10090932,bq34jr07bv,Nick_Dissertation_EX2_EP,1,36,2022-04-04T01:29:33+00:00,9.7735819816589,13,Mixed_Stim.csv,JOLVersionA.csv,"JOL Mixed A","JOL Mixed A",CHISEL,HAMMER,Study1,F,9,30,Study,4,4,,Study/JOL,"Study Phase",30,JOL,5,5,,"How likely are you to correctly recall the second item in the pair?|Type your response on a scale from 0-100 and then press Enter.",4002,,,-1,-1,,,,25,5008,1482,1626,1,1
w10090932,bq34jr07bv,Nick_Dissertation_EX2_EP,1,37,2022-04-04T01:29:43+00:00,9.788271188736,13,Mixed_Stim.csv,JOLVersionA.csv,"JOL Mixed A","JOL Mixed A",PARK,HUNGRY,Study1,U,68,10,Study,4,4,,Study/JOL,"Study Phase",10,JOL,5,5,,"How likely are you to correctly recall the second item in the pair?|Type your response on a scale from 0-100 and then press Enter.",4002,,,-1,-1,,,,10,5011,1405,1516,1,1
w10090932,bq34jr07bv,Nick_Dissertation_EX2_EP,1,38,2022-04-04T01:29:53+00:00,9.7892110347748,13,Mixed_Stim.csv,JOLVersionA.csv,"JOL Mixed A","JOL Mixed A",EDITOR,NEWS,Study1,F,10,45,Study,4,4,,Study/JOL,"Study Phase",45,JOL,5,5,,"How likely are you to correctly recall the second item in the pair?|Type your response on a scale from 0-100 and then press Enter.",4001,,,-1,-1,,,,75,5009,553,1023,1,1
w10090932,bq34jr07bv,Nick_Dissertation_EX2_EP,1,39,2022-04-04T01:30:03+00:00,9.9248287677765,13,Mixed_Stim.csv,JOLVersionA.csv,"JOL Mixed A","JOL Mixed A",ROOT,PLANT,Study1,F,13,27,Study,4,4,,Study/JOL,"Study Phase",27,JOL,5,5,,"How likely are you to correctly recall the second item in the pair?|Type your response on a scale from 0-100 and then press Enter.",4001,,,-1,-1,,,,75,5009,3380,3464,1,1
w10090932,bq34jr07bv,Nick_Dissertation_EX2_EP,1,40,2022-04-04T01:30:13+00:00,9.7818911075592,13,Mixed_Stim.csv,JOLVersionA.csv,"JOL Mixed A","JOL Mixed A",WAY,OUT,Study1,F,16,11,Study,4,4,,Study/JOL,"Study Phase",11,JOL,5,5,,"How likely are you to correctly recall the second item in the pair?|Type your response on a scale from 0-100 and then press Enter.",4002,,,-1,-1,,,,70,5009,2642,3967,1,1
w10090932,bq34jr07bv,Nick_Dissertation_EX2_EP,1,41,2022-04-04T01:30:23+00:00,9.7823820114136,13,Mixed_Stim.csv,JOLVersionA.csv,"JOL Mixed A","JOL Mixed A",PUSHER,CLUTTER,Study1,U,66,19,Study,4,4,,Study/JOL,"Study Phase",19,JOL,5,5,,"How likely are you to correctly recall the second item in the pair?|Type your response on a scale from 0-100 and then press Enter.",4010,,,-1,-1,,,,5,5010,516,516,1,1
w10090932,bq34jr07bv,Nick_Dissertation_EX2_EP,1,42,2022-04-04T01:30:32+00:00,9.7814788818359,13,Mixed_Stim.csv,JOLVersionA.csv,"JOL Mixed A","JOL Mixed A",ORCHID,FLOWER,Study1,F,24,7,Study,4,4,,Study/JOL,"Study Phase",7,JOL,5,5,,"How likely are you to correctly recall the second item in the pair?|Type your response on a scale from 0-100 and then press Enter.",4004,,,-1,-1,,,,80,5010,636,1132,1,1
w10090932,bq34jr07bv,Nick_Dissertation_EX2_EP,1,43,2022-04-04T01:30:42+00:00,9.7738201618195,13,Mixed_Stim.csv,JOLVersionA.csv,"JOL Mixed A","JOL Mixed A",PAW,DOG,Study1,F,15,37,Study,4,4,,Study/JOL,"Study Phase",37,JOL,5,5,,"How likely are you to correctly recall the second item in the pair?|Type your response on a scale from 0-100 and then press Enter.",4002,,,-1,-1,,,,80,5010,474,875,1,1
w10090932,bq34jr07bv,Nick_Dissertation_EX2_EP,1,44,2022-04-04T01:30:52+00:00,9.7761950492859,13,Mixed_Stim.csv,JOLVersionA.csv,"JOL Mixed A","JOL Mixed A",DELINQUENT,BAD,Study1,F,6,12,Study,4,4,,Study/JOL,"Study Phase",12,JOL,5,5,,"How likely are you to correctly recall the second item in the pair?|Type your response on a scale from 0-100 and then press Enter.",4004,,,-1,-1,,,,100,5011,363,650,1,1
w10090932,bq34jr07bv,Nick_Dissertation_EX2_EP,1,45,2022-04-04T01:31:02+00:00,9.7870638370514,13,Mixed_Stim.csv,JOLVersionA.csv,"JOL Mixed A","JOL Mixed A",ALLOW,TUCK,Study1,U,78,13,Study,4,4,,Study/JOL,"Study Phase",13,JOL,5,5,,"How likely are you to correctly recall the second item in the pair?|Type your response on a scale from 0-100 and then press Enter.",4001,,,-1,-1,,,,5,5012,3333,3333,1,1
w10090932,bq34jr07bv,Nick_Dissertation_EX2_EP,1,46,2022-04-04T01:31:11+00:00,9.7942080497742,13,Mixed_Stim.csv,JOLVersionA.csv,"JOL Mixed A","JOL Mixed A",WAGE,MONEY,Study1,F,8,44,Study,4,4,,Study/JOL,"Study Phase",44,JOL,5,5,,"How likely are you to correctly recall the second item in the pair?|Type your response on a scale from 0-100 and then press Enter.",4002,,,-1,-1,,,,80,5009,1806,2199,1,1
w10090932,bq34jr07bv,Nick_Dissertation_EX2_EP,1,47,2022-04-04T01:31:21+00:00,9.9775249958038,13,Mixed_Stim.csv,JOLVersionA.csv,"JOL Mixed A","JOL Mixed A",ART,LION,Study1,U,79,18,Study,4,4,,Study/JOL,"Study Phase",18,JOL,5,5,,"How likely are you to correctly recall the second item in the pair?|Type your response on a scale from 0-100 and then press Enter.",4001,,,-1,-1,,,,10,5010,4115,4729,1,1
w10090932,bq34jr07bv,Nick_Dissertation_EX2_EP,1,48,2022-04-04T01:31:31+00:00,9.8581140041351,13,Mixed_Stim.csv,JOLVersionA.csv,"JOL Mixed A","JOL Mixed A",SWAN,BIRD,Study1,F,14,46,Study,4,4,,Study/JOL,"Study Phase",46,JOL,5,5,,"How likely are you to correctly recall the second item in the pair?|Type your response on a scale from 0-100 and then press Enter.",4005,,,-1,-1,,,,80,5009,3326,3548,1,1
w10090932,bq34jr07bv,Nick_Dissertation_EX2_EP,1,49,2022-04-04T01:31:41+00:00,9.7932479381561,13,Mixed_Stim.csv,JOLVersionA.csv,"JOL Mixed A","JOL Mixed A",DISCOVER,FLOOR,Study1,U,71,15,Study,4,4,,Study/JOL,"Study Phase",15,JOL,5,5,,"How likely are you to correctly recall the second item in the pair?|Type your response on a scale from 0-100 and then press Enter.",4002,,,-1,-1,,,,0,5010,391,391,1,1
w10090932,bq34jr07bv,Nick_Dissertation_EX2_EP,1,50,2022-04-04T01:31:51+00:00,10.075731992722,13,Mixed_Stim.csv,JOLVersionA.csv,"JOL Mixed A","JOL Mixed A",DEATH,BUSINESS,Study1,U,72,16,Study,4,4,,Study/JOL,"Study Phase",16,JOL,5,5,,"How likely are you to correctly recall the second item in the pair?|Type your response on a scale from 0-100 and then press Enter.",4010,,,-1,-1,,,,5,5015,998,998,1,1
w10090932,bq34jr07bv,Nick_Dissertation_EX2_EP,1,51,2022-04-04T01:32:01+00:00,9.7863881587982,13,Mixed_Stim.csv,JOLVersionA.csv,"JOL Mixed A","JOL Mixed A",MALT,CHOCOLATE,BUFFER2,Buffer,88,48,Study,4,4,,Study/JOL,BUFFER2,48,JOL,5,5,,"How likely are you to correctly recall the second item in the pair?|Type your response on a scale from 0-100 and then press Enter.",4014,,,-1,-1,,,,75,5009,1380,1668,1,1
w10090932,bq34jr07bv,Nick_Dissertation_EX2_EP,1,52,2022-04-04T01:32:11+00:00,9.7957558631897,13,Mixed_Stim.csv,JOLVersionA.csv,"JOL Mixed A","JOL Mixed A",THING,STUFF,BUFFER2,Buffer,90,47,Study,4,4,,Study/JOL,BUFFER2,47,JOL,5,5,,"How likely are you to correctly recall the second item in the pair?|Type your response on a scale from 0-100 and then press Enter.",4008,,,-1,-1,,,,65,5009,1345,1545,1,1
w10090932,bq34jr07bv,Nick_Dissertation_EX2_EP,1,53,2022-04-04T01:32:21+00:00,9.8063261508942,13,Mixed_Stim.csv,JOLVersionA.csv,"JOL Mixed A","JOL Mixed A",SHERRIF,POLICE,BUFFER2,Buffer,87,51,Study,4,4,,Study/JOL,BUFFER2,51,JOL,5,5,,"How likely are you to correctly recall the second item in the pair?|Type your response on a scale from 0-100 and then press Enter.",4002,,,-1,-1,,,,100,5010,1658,2545,1,1
w10090932,bq34jr07bv,Nick_Dissertation_EX2_EP,1,54,2022-04-04T01:32:30+00:00,9.7926599979401,13,Mixed_Stim.csv,JOLVersionA.csv,"JOL Mixed A","JOL Mixed A",GEESE,GOOSE,BUFFER2,Buffer,86,49,Study,4,4,,Study/JOL,BUFFER2,49,JOL,5,5,,"How likely are you to correctly recall the second item in the pair?|Type your response on a scale from 0-100 and then press Enter.",4004,,,-1,-1,,,,90,5011,451,765,1,1
w10090932,bq34jr07bv,Nick_Dissertation_EX2_EP,1,55,2022-04-04T01:32:40+00:00,10.027612924576,13,Mixed_Stim.csv,JOLVersionA.csv,"JOL Mixed A","JOL Mixed A",MOON,SPACE,BUFFER2,Buffer,89,50,Study,4,4,,Study/JOL,BUFFER2,50,JOL,5,5,,"How likely are you to correctly recall the second item in the pair?|Type your response on a scale from 0-100 and then press Enter.",4002,,,-1,-1,,,,89,5010,17,252,1,1
w10090932,bq34jr07bv,Nick_Dissertation_EX2_EP,1,56,2022-04-04T01:32:44+00:00,3.9106779098511,13,Mixed_Stim.csv,JOLVersionA.csv,"JOL Mixed A","JOL Mixed A",,,,,,0,Instruct,User,-,"You have completed this section. Please press Enter.",Filler_Instruction,Instruct2,,No,,,,,3444,,,-1,-1,,,,,,,,1,
w10090932,bq34jr07bv,Nick_Dissertation_EX2_EP,1,57,2022-04-04T01:34:45+00:00,120.83419299126,13,Mixed_Stim.csv,JOLVersionA.csv,"JOL Mixed A","JOL Mixed A",,,,,,0,FreeRecall,120,120,"Please list the 50 US states in alphabetical order. The task will automatically advance to the next screen after two minutes.",,Filler1,,No,,,,,120003,"alabama, Alaska, arizona, arkansas, california, colorado, Connecticut, delaware, florida, ",0,42538,111926,0,0,,,,,,1,
w10090932,bq34jr07bv,Nick_Dissertation_EX2_EP,1,58,2022-04-04T01:34:57+00:00,12.184578180313,13,Mixed_Stim.csv,JOLVersionA.csv,"JOL Mixed A","JOL Mixed A",,,,,,0,Instruct,-,10,"You will now be presented with the first word from each of the previously studied item pairs. Please type the missing word. If you do not know the word, you may guess or press Enter to skip forward to the next pair.",,Instruct3,,No,,,,,11794,,,-1,-1,,,,,,,,1,
w10090932,bq34jr07bv,Nick_Dissertation_EX2_EP,1,59,2022-04-04T01:35:06+00:00,9.0614387989044,13,Mixed_Stim.csv,JOLVersionA.csv,"JOL Mixed A","JOL Mixed A",SWAN,BIRD,Study1,F,14,46,Test,User,-,,Recall,Recall1,,No,,,,,8656,bird,100,2489,7266,1,1,,,,,,1,
w10090932,bq34jr07bv,Nick_Dissertation_EX2_EP,1,60,2022-04-04T01:35:17+00:00,10.210896015167,13,Mixed_Stim.csv,JOLVersionA.csv,"JOL Mixed A","JOL Mixed A",ARTERY,BRONZE,Study1,U,74,23,Test,User,-,,Recall,Recall1,,No,,,,,9822,vein,20,5932,9078,0,0,,,,,,1,
w10090932,bq34jr07bv,Nick_Dissertation_EX2_EP,1,61,2022-04-04T01:35:19+00:00,2.4100201129913,13,Mixed_Stim.csv,JOLVersionA.csv,"JOL Mixed A","JOL Mixed A",HYGIENE,CLEAN,Study1,F,17,28,Test,User,-,,Recall,Recall1,,No,,,,,2199,clean,100,1375,1875,1,1,,,,,,1,
w10090932,bq34jr07bv,Nick_Dissertation_EX2_EP,1,62,2022-04-04T01:35:26+00:00,6.7835209369659,13,Mixed_Stim.csv,JOLVersionA.csv,"JOL Mixed A","JOL Mixed A",SUGAR,RIDDLE,Study1,U,81,42,Test,User,-,,Recall,Recall1,,No,,,,,6416,,0,-1,-1,0,0,,,,,,1,
w10090932,bq34jr07bv,Nick_Dissertation_EX2_EP,1,63,2022-04-04T01:35:29+00:00,3.4422209262848,13,Mixed_Stim.csv,JOLVersionA.csv,"JOL Mixed A","JOL Mixed A",HERD,COW,Study1,F,22,33,Test,User,-,,Recall,Recall1,,No,,,,,3224,cow,100,2757,3005,1,1,,,,,,1,
w10090932,bq34jr07bv,Nick_Dissertation_EX2_EP,1,64,2022-04-04T01:35:32+00:00,2.9975910186768,13,Mixed_Stim.csv,JOLVersionA.csv,"JOL Mixed A","JOL Mixed A",ART,LION,Study1,U,79,18,Test,User,-,,Recall,Recall1,,No,,,,,2797,king,50,2138,2617,0,0,,,,,,1,
w10090932,bq34jr07bv,Nick_Dissertation_EX2_EP,1,65,2022-04-04T01:35:35+00:00,2.3862791061401,13,Mixed_Stim.csv,JOLVersionA.csv,"JOL Mixed A","JOL Mixed A",CASH,WOULD,Study1,U,83,43,Test,User,-,,Recall,Recall1,,No,,,,,2189,moneh,20,1431,1926,0,0,,,,,,1,
w10090932,bq34jr07bv,Nick_Dissertation_EX2_EP,1,66,2022-04-04T01:35:38+00:00,3.1079359054565,13,Mixed_Stim.csv,JOLVersionA.csv,"JOL Mixed A","JOL Mixed A",HAPPY,CAR,Study1,U,77,22,Test,User,-,,Recall,Recall1,,No,,,,,2911,car,100,2345,2645,1,1,,,,,,1,
w10090932,bq34jr07bv,Nick_Dissertation_EX2_EP,1,67,2022-04-04T01:35:41+00:00,2.8887331485748,13,Mixed_Stim.csv,JOLVersionA.csv,"JOL Mixed A","JOL Mixed A",PAW,DOG,Study1,F,15,37,Test,User,-,,Recall,Recall1,,No,,,,,2696,dog,100,1932,2327,1,1,,,,,,1,
w10090932,bq34jr07bv,Nick_Dissertation_EX2_EP,1,68,2022-04-04T01:35:44+00:00,3.5812928676605,13,Mixed_Stim.csv,JOLVersionA.csv,"JOL Mixed A","JOL Mixed A",ROOT,PLANT,Study1,F,13,27,Test,User,-,,Recall,Recall1,,No,,,,,3385,plant,100,2730,3185,1,1,,,,,,1,
w10090932,bq34jr07bv,Nick_Dissertation_EX2_EP,1,69,2022-04-04T01:35:49+00:00,5.2970240116119,13,Mixed_Stim.csv,JOLVersionA.csv,"JOL Mixed A","JOL Mixed A",DISCUSSION,TALK,Study1,F,21,21,Test,User,-,,Recall,Recall1,,No,,,,,4893,talk,100,1471,4669,1,1,,,,,,1,
w10090932,bq34jr07bv,Nick_Dissertation_EX2_EP,1,70,2022-04-04T01:35:52+00:00,2.478667974472,13,Mixed_Stim.csv,JOLVersionA.csv,"JOL Mixed A","JOL Mixed A",BRIDGE,WATER,Study1,F,18,40,Test,User,-,,Recall,Recall1,,No,,,,,2279,water,100,1320,1867,1,1,,,,,,1,
w10090932,bq34jr07bv,Nick_Dissertation_EX2_EP,1,71,2022-04-04T01:35:56+00:00,3.8554999828339,13,Mixed_Stim.csv,JOLVersionA.csv,"JOL Mixed A","JOL Mixed A",SOON,BELT,Study1,U,70,34,Test,User,-,,Recall,Recall1,,No,,,,,3645,,0,-1,-1,0,0,,,,,,1,
w10090932,bq34jr07bv,Nick_Dissertation_EX2_EP,1,72,2022-04-04T01:36:01+00:00,5.1122250556946,13,Mixed_Stim.csv,JOLVersionA.csv,"JOL Mixed A","JOL Mixed A",FIX,HAND,Study1,U,75,24,Test,User,-,,Recall,Recall1,,No,,,,,4737,broken,20,3504,4476,0,0,,,,,,1,
w10090932,bq34jr07bv,Nick_Dissertation_EX2_EP,1,73,2022-04-04T01:36:04+00:00,2.8116230964661,13,Mixed_Stim.csv,JOLVersionA.csv,"JOL Mixed A","JOL Mixed A",CHISEL,HAMMER,Study1,F,9,30,Test,User,-,,Recall,Recall1,,No,,,,,2619,hammer,100,1858,2385,1,1,,,,,,1,
w10090932,bq34jr07bv,Nick_Dissertation_EX2_EP,1,74,2022-04-04T01:36:07+00:00,3.5454728603363,13,Mixed_Stim.csv,JOLVersionA.csv,"JOL Mixed A","JOL Mixed A",LIFT,WOMAN,Study1,U,69,8,Test,User,-,,Recall,Recall1,,No,,,,,3350,height,0,2350,3139,0,0,,,,,,1,
w10090932,bq34jr07bv,Nick_Dissertation_EX2_EP,1,75,2022-04-04T01:36:10+00:00,3.1903350353241,13,Mixed_Stim.csv,JOLVersionA.csv,"JOL Mixed A","JOL Mixed A",DISCOVER,FLOOR,Study1,U,71,15,Test,User,-,,Recall,Recall1,,No,,,,,2972,,0,-1,-1,0,0,,,,,,1,
w10090932,bq34jr07bv,Nick_Dissertation_EX2_EP,1,76,2022-04-04T01:36:16+00:00,5.3026959896088,13,Mixed_Stim.csv,JOLVersionA.csv,"JOL Mixed A","JOL Mixed A",EDITOR,NEWS,Study1,F,10,45,Test,User,-,,Recall,Recall1,,No,,,,,4921,book,0,1573,4704,0,0,,,,,,1,
w10090932,bq34jr07bv,Nick_Dissertation_EX2_EP,1,77,2022-04-04T01:36:18+00:00,2.616436958313,13,Mixed_Stim.csv,JOLVersionA.csv,"JOL Mixed A","JOL Mixed A",ORCHID,FLOWER,Study1,F,24,7,Test,User,-,,Recall,Recall1,,No,,,,,2411,flower,100,1562,2089,1,1,,,,,,1,
w10090932,bq34jr07bv,Nick_Dissertation_EX2_EP,1,78,2022-04-04T01:36:23+00:00,5.0859251022339,13,Mixed_Stim.csv,JOLVersionA.csv,"JOL Mixed A","JOL Mixed A",DEBATE,SIGHT,Study1,U,73,14,Test,User,-,,Recall,Recall1,,No,,,,,4710,speech,36.363636363636,2363,4445,0,0,,,,,,1,
w10090932,bq34jr07bv,Nick_Dissertation_EX2_EP,1,79,2022-04-04T01:36:27+00:00,3.6537239551544,13,Mixed_Stim.csv,JOLVersionA.csv,"JOL Mixed A","JOL Mixed A",VALLEY,ADD,Study1,U,82,41,Test,User,-,,Recall,Recall1,,No,,,,,3446,hills,0,2653,3273,0,0,,,,,,1,
w10090932,bq34jr07bv,Nick_Dissertation_EX2_EP,1,80,2022-04-04T01:36:29+00:00,1.9805891513824,13,Mixed_Stim.csv,JOLVersionA.csv,"JOL Mixed A","JOL Mixed A",WAY,OUT,Study1,F,16,11,Test,User,-,,Recall,Recall1,,No,,,,,1788,,0,-1,-1,0,0,,,,,,1,
w10090932,bq34jr07bv,Nick_Dissertation_EX2_EP,1,81,2022-04-04T01:36:31+00:00,2.0790598392487,13,Mixed_Stim.csv,JOLVersionA.csv,"JOL Mixed A","JOL Mixed A",REVOLUTION,WAR,Study1,F,20,9,Test,User,-,,Recall,Recall1,,No,,,,,1887,war,100,1340,1636,1,1,,,,,,1,
w10090932,bq34jr07bv,Nick_Dissertation_EX2_EP,1,82,2022-04-04T01:36:37+00:00,5.6642110347748,13,Mixed_Stim.csv,JOLVersionA.csv,"JOL Mixed A","JOL Mixed A",MACHINE,POSITION,Study1,U,76,38,Test,User,-,,Recall,Recall1,,No,,,,,5280,,0,-1,-1,0,0,,,,,,1,
w10090932,bq34jr07bv,Nick_Dissertation_EX2_EP,1,83,2022-04-04T01:36:40+00:00,2.6962790489197,13,Mixed_Stim.csv,JOLVersionA.csv,"JOL Mixed A","JOL Mixed A",ALLOW,TUCK,Study1,U,78,13,Test,User,-,,Recall,Recall1,,No,,,,,2493,,0,-1,-1,0,0,,,,,,1,
w10090932,bq34jr07bv,Nick_Dissertation_EX2_EP,1,84,2022-04-04T01:36:42+00:00,2.9022769927979,13,Mixed_Stim.csv,JOLVersionA.csv,"JOL Mixed A","JOL Mixed A",STRONG,ACCIDENT,Study1,U,80,35,Test,User,-,,Recall,Recall1,,No,,,,,2682,,0,-1,-1,0,0,,,,,,1,
w10090932,bq34jr07bv,Nick_Dissertation_EX2_EP,1,85,2022-04-04T01:36:46+00:00,4.0472810268402,13,Mixed_Stim.csv,JOLVersionA.csv,"JOL Mixed A","JOL Mixed A",DIGESTION,STOMACH,Study1,F,7,20,Test,User,-,,Recall,Recall1,,No,,,,,3855,stomach,100,1429,3582,1,1,,,,,,1,
w10090932,bq34jr07bv,Nick_Dissertation_EX2_EP,1,86,2022-04-04T01:36:57+00:00,10.385365962982,13,Mixed_Stim.csv,JOLVersionA.csv,"JOL Mixed A","JOL Mixed A",GEOLOGY,ROCK,Study1,F,19,29,Test,User,-,,Recall,Recall1,,No,,,,,10001,map,0,9201,9483,0,0,,,,,,1,
w10090932,bq34jr07bv,Nick_Dissertation_EX2_EP,1,87,2022-04-04T01:37:00+00:00,2.8908469676971,13,Mixed_Stim.csv,JOLVersionA.csv,"JOL Mixed A","JOL Mixed A",WAGE,MONEY,Study1,F,8,44,Test,User,-,,Recall,Recall1,,No,,,,,2684,money,100,1692,2263,1,1,,,,,,1,
w10090932,bq34jr07bv,Nick_Dissertation_EX2_EP,1,88,2022-04-04T01:37:03+00:00,3.440064907074,13,Mixed_Stim.csv,JOLVersionA.csv,"JOL Mixed A","JOL Mixed A",DEATH,BUSINESS,Study1,U,72,16,Test,User,-,,Recall,Recall1,,No,,,,,3236,business,100,1294,2739,1,1,,,,,,1,
w10090932,bq34jr07bv,Nick_Dissertation_EX2_EP,1,89,2022-04-04T01:37:05+00:00,2.0198881626129,13,Mixed_Stim.csv,JOLVersionA.csv,"JOL Mixed A","JOL Mixed A",TUNA,FISH,Study1,F,25,36,Test,User,-,,Recall,Recall1,,No,,,,,1820,fish,100,1284,1615,1,1,,,,,,1,
w10090932,bq34jr07bv,Nick_Dissertation_EX2_EP,1,90,2022-04-04T01:37:15+00:00,9.5001718997955,13,Mixed_Stim.csv,JOLVersionA.csv,"JOL Mixed A","JOL Mixed A",KING,VASE,Study1,U,85,17,Test,User,-,,Recall,Recall1,,No,,,,,9100,vase,100,3733,8883,1,1,,,,,,1,
w10090932,bq34jr07bv,Nick_Dissertation_EX2_EP,1,91,2022-04-04T01:37:18+00:00,3.2153661251068,13,Mixed_Stim.csv,JOLVersionA.csv,"JOL Mixed A","JOL Mixed A",PUSHER,CLUTTER,Study1,U,66,19,Test,User,-,,Recall,Recall1,,No,,,,,3018,,0,-1,-1,0,0,,,,,,1,
w10090932,bq34jr07bv,Nick_Dissertation_EX2_EP,1,92,2022-04-04T01:37:23+00:00,4.5905878543854,13,Mixed_Stim.csv,JOLVersionA.csv,"JOL Mixed A","JOL Mixed A",HORNET,STING,Study1,F,11,26,Test,User,-,,Recall,Recall1,,No,,,,,4219,wasp,22.222222222222,2541,3523,0,0,,,,,,1,
w10090932,bq34jr07bv,Nick_Dissertation_EX2_EP,1,93,2022-04-04T01:37:27+00:00,4.5012900829315,13,Mixed_Stim.csv,JOLVersionA.csv,"JOL Mixed A","JOL Mixed A",DIETARY,SACKING,Study1,U,67,39,Test,User,-,,Recall,Recall1,,No,,,,,4123,,0,-1,-1,0,0,,,,,,1,
w10090932,bq34jr07bv,Nick_Dissertation_EX2_EP,1,94,2022-04-04T01:37:29+00:00,2.3201899528503,13,Mixed_Stim.csv,JOLVersionA.csv,"JOL Mixed A","JOL Mixed A",DELINQUENT,BAD,Study1,F,6,12,Test,User,-,,Recall,Recall1,,No,,,,,2129,bad,100,1537,1898,1,1,,,,,,1,
w10090932,bq34jr07bv,Nick_Dissertation_EX2_EP,1,95,2022-04-04T01:37:31+00:00,1.8451099395752,13,Mixed_Stim.csv,JOLVersionA.csv,"JOL Mixed A","JOL Mixed A",CREDIT,CARD,Study1,F,23,31,Test,User,-,,Recall,Recall1,,No,,,,,1650,card,100,958,1474,1,1,,,,,,1,
w10090932,bq34jr07bv,Nick_Dissertation_EX2_EP,1,96,2022-04-04T01:37:36+00:00,4.6231122016907,13,Mixed_Stim.csv,JOLVersionA.csv,"JOL Mixed A","JOL Mixed A",BITTER,COLD,Study1,F,12,25,Test,User,-,,Recall,Recall1,,No,,,,,4253,sweet,0,2666,3928,0,0,,,,,,1,
w10090932,bq34jr07bv,Nick_Dissertation_EX2_EP,1,97,2022-04-04T01:37:42+00:00,6.1602408885956,13,Mixed_Stim.csv,JOLVersionA.csv,"JOL Mixed A","JOL Mixed A",PARK,HUNGRY,Study1,U,68,10,Test,User,-,,Recall,Recall1,,No,,,,,5780,swing,36.363636363636,2943,5544,0,0,,,,,,1,
w10090932,bq34jr07bv,Nick_Dissertation_EX2_EP,1,98,2022-04-04T01:37:45+00:00,3.1008529663086,13,Mixed_Stim.csv,JOLVersionA.csv,"JOL Mixed A","JOL Mixed A",HIDE,SICK,Study1,U,84,32,Test,User,-,,Recall,Recall1,,No,,,,,2900,,0,-1,-1,0,0,,,,,,1,
w10090932,bq34jr07bv,Nick_Dissertation_EX2_EP,1,99,2022-04-04T01:37:58+00:00,12.993616104126,13,Mixed_Stim.csv,JOLVersionA.csv,"JOL Mixed A","JOL Mixed A",,,,,,0,Instruct,-,10,"You will now be presented with a new set of word pairs. Please study each pair. Remember that your memory will be tested! When finished, press Enter to move to the next pair.",Initial_Instruct,Instruct4,,No,,,,,12534,,,-1,-1,,,,,,,,1,
w10090932,bq34jr07bv,Nick_Dissertation_EX2_EP,1,100,2022-04-04T01:38:09+00:00,10.820058822632,13,Mixed_Stim.csv,JOLVersionA.csv,"JOL Mixed A","JOL Mixed A",,,,,,0,Instruct,,10,"You will again be asked to rate your ability to remember these items using a 0 to 100 scale. Remember to use the full range of the scale!",,Instruct10,,No,,,,,10137,,,-1,-1,,,,,,,,1,
w10090932,bq34jr07bv,Nick_Dissertation_EX2_EP,1,101,2022-04-04T01:38:22+00:00,13.464744091034,13,Mixed_Stim.csv,JOLVersionA.csv,"JOL Mixed A","JOL Mixed A",,,,,,0,Instruct,User,-,"Each word will be displayed on the computer screen for 4 seconds. You will then have 4 seconds to make your rating. The screen will automatically move to the next pair when time is up. Press Enter when you are ready to begin.",,Instruct11,,No,,,,,13083,,,-1,-1,,,,,,,,1,
w10090932,bq34jr07bv,Nick_Dissertation_EX2_EP,1,102,2022-04-04T01:38:32+00:00,9.8041300773621,13,Mixed_Stim.csv,JOLVersionA.csv,"JOL Mixed A","JOL Mixed A",SHRIMP,FISH,BUFFER3,Buffer,93,56,Study,4,4,,Study/JOL,BUFFER3,56,JOL,5,5,BUFFER3,"How likely are you to correctly recall the second item in the pair?|Type your response on a scale from 0-100 and then press Enter.",4002,,,-1,-1,,,,,5009,-1,-1,1,1
w10090932,bq34jr07bv,Nick_Dissertation_EX2_EP,1,103,2022-04-04T01:38:42+00:00,9.7942328453064,13,Mixed_Stim.csv,JOLVersionA.csv,"JOL Mixed A","JOL Mixed A",CARROT,POTATO,BUFFER3,Buffer,91,53,Study,4,4,,Study/JOL,BUFFER3,53,JOL,5,5,BUFFER3,"How likely are you to correctly recall the second item in the pair?|Type your response on a scale from 0-100 and then press Enter.",4002,,,125,267,,,,60,5010,3305,3410,1,1
w10090932,bq34jr07bv,Nick_Dissertation_EX2_EP,1,104,2022-04-04T01:38:52+00:00,9.7988061904907,13,Mixed_Stim.csv,JOLVersionA.csv,"JOL Mixed A","JOL Mixed A",CAMP,ADVENTURE,BUFFER3,Buffer,95,52,Study,4,4,,Study/JOL,BUFFER3,52,JOL,5,5,BUFFER3,"How likely are you to correctly recall the second item in the pair?|Type your response on a scale from 0-100 and then press Enter.",4002,,,-1,-1,,,,60,5010,3149,3301,1,1
w10090932,bq34jr07bv,Nick_Dissertation_EX2_EP,1,105,2022-04-04T01:39:02+00:00,9.7977039813995,13,Mixed_Stim.csv,JOLVersionA.csv,"JOL Mixed A","JOL Mixed A",NOODLE,STRING,BUFFER3,Buffer,92,55,Study,4,4,,Study/JOL,BUFFER3,55,JOL,5,5,BUFFER3,"How likely are you to correctly recall the second item in the pair?|Type your response on a scale from 0-100 and then press Enter.",4002,,,-1,-1,,,,65,5010,2746,2933,1,1
w10090932,bq34jr07bv,Nick_Dissertation_EX2_EP,1,106,2022-04-04T01:39:11+00:00,9.7990138530731,13,Mixed_Stim.csv,JOLVersionA.csv,"JOL Mixed A","JOL Mixed A",ICE,FROZEN,BUFFER3,Buffer,94,54,Study,4,4,,Study/JOL,BUFFER3,54,JOL,5,5,BUFFER3,"How likely are you to correctly recall the second item in the pair?|Type your response on a scale from 0-100 and then press Enter.",4002,,,-1,-1,,,,100,5010,650,1523,1,1
w10090932,bq34jr07bv,Nick_Dissertation_EX2_EP,1,107,2022-04-04T01:39:21+00:00,9.8033890724182,13,Mixed_Stim.csv,JOLVersionA.csv,"JOL Mixed A","JOL Mixed A",BOTH,OUNCE,Study2,U,172,82,Study,4,4,,Study/JOL,"Study Phase2",82,JOL,5,5,"Study Phase2","How likely are you to correctly recall the second item in the pair?|Type your response on a scale from 0-100 and then press Enter.",4009,,,-1,-1,,,,25,5010,1596,1842,1,1
w10090932,bq34jr07bv,Nick_Dissertation_EX2_EP,1,108,2022-04-04T01:39:31+00:00,9.7929179668427,13,Mixed_Stim.csv,JOLVersionA.csv,"JOL Mixed A","JOL Mixed A",JUSTICE,MAROON,Study2,U,156,96,Study,4,4,,Study/JOL,"Study Phase2",96,JOL,5,5,"Study Phase2","How likely are you to correctly recall the second item in the pair?|Type your response on a scale from 0-100 and then press Enter.",4002,,,-1,-1,,,,30,5011,2065,2279,1,1
w10090932,bq34jr07bv,Nick_Dissertation_EX2_EP,1,109,2022-04-04T01:39:41+00:00,9.7945790290833,13,Mixed_Stim.csv,JOLVersionA.csv,"JOL Mixed A","JOL Mixed A",ARTERY,BRONZE,Study1,U,74,23,Study,4,4,,Study/JOL,"Study Phase2",23,JOL,5,5,"Study Phase2","How likely are you to correctly recall the second item in the pair?|Type your response on a scale from 0-100 and then press Enter.",4002,,,-1,-1,,,,50,5009,2177,2348,1,1
w10090932,bq34jr07bv,Nick_Dissertation_EX2_EP,1,110,2022-04-04T01:39:51+00:00,9.800754070282,13,Mixed_Stim.csv,JOLVersionA.csv,"JOL Mixed A","JOL Mixed A",AFFECTION,LOVE,Study2,F,115,87,Study,4,4,,Study/JOL,"Study Phase2",87,JOL,5,5,"Study Phase2","How likely are you to correctly recall the second item in the pair?|Type your response on a scale from 0-100 and then press Enter.",4001,,,-1,-1,,,,100,5010,554,901,1,1
w10090932,bq34jr07bv,Nick_Dissertation_EX2_EP,1,111,2022-04-04T01:40:00+00:00,9.8561248779297,13,Mixed_Stim.csv,JOLVersionA.csv,"JOL Mixed A","JOL Mixed A",FEUD,FIGHT,Study2,F,113,61,Study,4,4,,Study/JOL,"Study Phase2",61,JOL,5,5,"Study Phase2","How likely are you to correctly recall the second item in the pair?|Type your response on a scale from 0-100 and then press Enter.",4003,,,-1,-1,,,,100,5010,435,773,1,1
w10090932,bq34jr07bv,Nick_Dissertation_EX2_EP,1,112,2022-04-04T01:40:10+00:00,9.960685968399,13,Mixed_Stim.csv,JOLVersionA.csv,"JOL Mixed A","JOL Mixed A",MULE,DONKEY,Study2,F,108,81,Study,4,4,,Study/JOL,"Study Phase2",81,JOL,5,5,"Study Phase2","How likely are you to correctly recall the second item in the pair?|Type your response on a scale from 0-100 and then press Enter.",4002,,,-1,-1,,,,90,5010,441,584,1,1
w10090932,bq34jr07bv,Nick_Dissertation_EX2_EP,1,113,2022-04-04T01:40:20+00:00,9.7854161262512,13,Mixed_Stim.csv,JOLVersionA.csv,"JOL Mixed A","JOL Mixed A",CHOP,CUT,Study2,F,107,93,Study,4,4,,Study/JOL,"Study Phase2",93,JOL,5,5,"Study Phase2","How likely are you to correctly recall the second item in the pair?|Type your response on a scale from 0-100 and then press Enter.",4002,,,-1,-1,,,,75,5009,1279,1722,1,1
w10090932,bq34jr07bv,Nick_Dissertation_EX2_EP,1,114,2022-04-04T01:40:30+00:00,9.772675037384,13,Mixed_Stim.csv,JOLVersionA.csv,"JOL Mixed A","JOL Mixed A",SHEARS,SCISSORS,Study2,F,112,59,Study,4,4,,Study/JOL,"Study Phase2",59,JOL,5,5,"Study Phase2","How likely are you to correctly recall the second item in the pair?|Type your response on a scale from 0-100 and then press Enter.",4010,,,-1,-1,,,,65,5008,588,724,1,1
w10090932,bq34jr07bv,Nick_Dissertation_EX2_EP,1,115,2022-04-04T01:40:40+00:00,9.7802169322968,13,Mixed_Stim.csv,JOLVersionA.csv,"JOL Mixed A","JOL Mixed A",EXTENSION,LONG,Study2,F,96,66,Study,4,4,,Study/JOL,"Study Phase2",66,JOL,5,5,"Study Phase2","How likely are you to correctly recall the second item in the pair?|Type your response on a scale from 0-100 and then press Enter.",4001,,,3566,3567,,,,85,5009,754,1078,1,1
w10090932,bq34jr07bv,Nick_Dissertation_EX2_EP,1,116,2022-04-04T01:40:49+00:00,9.7859840393066,13,Mixed_Stim.csv,JOLVersionA.csv,"JOL Mixed A","JOL Mixed A",FURRY,DOG,Study2,F,102,89,Study,4,4,,Study/JOL,"Study Phase2",89,JOL,5,5,"Study Phase2","How likely are you to correctly recall the second item in the pair?|Type your response on a scale from 0-100 and then press Enter.",4002,,,-1,-1,,,,10,5009,2101,2272,1,1
w10090932,bq34jr07bv,Nick_Dissertation_EX2_EP,1,117,2022-04-04T01:40:59+00:00,9.7828550338745,13,Mixed_Stim.csv,JOLVersionA.csv,"JOL Mixed A","JOL Mixed A",LOAN,SIGN,Study2,U,171,60,Study,4,4,,Study/JOL,"Study Phase2",60,JOL,5,5,"Study Phase2","How likely are you to correctly recall the second item in the pair?|Type your response on a scale from 0-100 and then press Enter.",4002,,,-1,-1,,,,,5009,-1,-1,1,1
w10090932,bq34jr07bv,Nick_Dissertation_EX2_EP,1,118,2022-04-04T01:41:09+00:00,9.7874579429626,13,Mixed_Stim.csv,JOLVersionA.csv,"JOL Mixed A","JOL Mixed A",MEAT,OBTAIN,Study2,U,161,75,Study,4,4,,Study/JOL,"Study Phase2",75,JOL,5,5,"Study Phase2","How likely are you to correctly recall the second item in the pair?|Type your response on a scale from 0-100 and then press Enter.",4001,,,645,799,,,,0,5010,1416,1417,1,1
w10090932,bq34jr07bv,Nick_Dissertation_EX2_EP,1,119,2022-04-04T01:41:19+00:00,9.811872959137,13,Mixed_Stim.csv,JOLVersionA.csv,"JOL Mixed A","JOL Mixed A",CHILL,COLD,Study2,F,114,91,Study,4,4,,Study/JOL,"Study Phase2",91,JOL,5,5,"Study Phase2","How likely are you to correctly recall the second item in the pair?|Type your response on a scale from 0-100 and then press Enter.",4003,,,-1,-1,,,,65,5009,796,946,1,1
w10090932,bq34jr07bv,Nick_Dissertation_EX2_EP,1,120,2022-04-04T01:41:29+00:00,9.7958970069885,13,Mixed_Stim.csv,JOLVersionA.csv,"JOL Mixed A","JOL Mixed A",MOAT,CLEAR,Study2,U,169,69,Study,4,4,,Study/JOL,"Study Phase2",69,JOL,5,5,"Study Phase2","How likely are you to correctly recall the second item in the pair?|Type your response on a scale from 0-100 and then press Enter.",4002,,,-1,-1,,,,10,5009,2393,2580,1,1
w10090932,bq34jr07bv,Nick_Dissertation_EX2_EP,1,121,2022-04-04T01:41:38+00:00,9.8144390583038,13,Mixed_Stim.csv,JOLVersionA.csv,"JOL Mixed A","JOL Mixed A",LEASE,TOIL,Study2,U,170,67,Study,4,4,,Study/JOL,"Study Phase2",67,JOL,5,5,"Study Phase2","How likely are you to correctly recall the second item in the pair?|Type your response on a scale from 0-100 and then press Enter.",4002,,,-1,-1,,,,15,5009,2550,3042,1,1
w10090932,bq34jr07bv,Nick_Dissertation_EX2_EP,1,122,2022-04-04T01:41:48+00:00,9.7978670597076,13,Mixed_Stim.csv,JOLVersionA.csv,"JOL Mixed A","JOL Mixed A",SHOELACE,TIE,Study2,F,99,63,Study,4,4,,Study/JOL,"Study Phase2",63,JOL,5,5,"Study Phase2","How likely are you to correctly recall the second item in the pair?|Type your response on a scale from 0-100 and then press Enter.",4001,,,-1,-1,,,,100,5009,1076,2055,1,1
w10090932,bq34jr07bv,Nick_Dissertation_EX2_EP,1,123,2022-04-04T01:41:58+00:00,9.793919801712,13,Mixed_Stim.csv,JOLVersionA.csv,"JOL Mixed A","JOL Mixed A",SHEARS,SCISSORS,Study2,F,112,59,Study,4,4,,Study/JOL,"Study Phase2",59,JOL,5,5,"Study Phase2","How likely are you to correctly recall the second item in the pair?|Type your response on a scale from 0-100 and then press Enter.",4001,,,-1,-1,,,,,5010,-1,-1,1,1
w10090932,bq34jr07bv,Nick_Dissertation_EX2_EP,1,124,2022-04-04T01:42:08+00:00,10.024046182632,13,Mixed_Stim.csv,JOLVersionA.csv,"JOL Mixed A","JOL Mixed A",GIVE,STEAK,Study2,U,158,70,Study,4,4,,Study/JOL,"Study Phase2",70,JOL,5,5,"Study Phase2","How likely are you to correctly recall the second item in the pair?|Type your response on a scale from 0-100 and then press Enter.",4001,,,-1,-1,,,,10,5011,3401,4352,1,1
w10090932,bq34jr07bv,Nick_Dissertation_EX2_EP,1,125,2022-04-04T01:42:18+00:00,9.7790658473969,13,Mixed_Stim.csv,JOLVersionA.csv,"JOL Mixed A","JOL Mixed A",VEHICLE,CHARM,Study2,U,160,79,Study,4,4,,Study/JOL,"Study Phase2",79,JOL,5,5,"Study Phase2","How likely are you to correctly recall the second item in the pair?|Type your response on a scale from 0-100 and then press Enter.",4004,,,-1,-1,,,,0,5009,4047,4047,1,1
w10090932,bq34jr07bv,Nick_Dissertation_EX2_EP,1,126,2022-04-04T01:42:28+00:00,9.9815189838409,13,Mixed_Stim.csv,JOLVersionA.csv,"JOL Mixed A","JOL Mixed A",MIRROR,CHILDREN,Study2,U,174,76,Study,4,4,,Study/JOL,"Study Phase2",76,JOL,5,5,"Study Phase2","How likely are you to correctly recall the second item in the pair?|Type your response on a scale from 0-100 and then press Enter.",4001,,,-1,-1,,,,5,5009,471,471,1,1
w10090932,bq34jr07bv,Nick_Dissertation_EX2_EP,1,127,2022-04-04T01:42:38+00:00,9.7949090003967,13,Mixed_Stim.csv,JOLVersionA.csv,"JOL Mixed A","JOL Mixed A",STRETCH,CLOTH,Study2,U,157,85,Study,4,4,,Study/JOL,"Study Phase2",85,JOL,5,5,"Study Phase2","How likely are you to correctly recall the second item in the pair?|Type your response on a scale from 0-100 and then press Enter.",4004,,,-1,-1,,,,10,5018,1833,1938,1,1
w10090932,bq34jr07bv,Nick_Dissertation_EX2_EP,1,128,2022-04-04T01:42:47+00:00,9.7807660102844,13,Mixed_Stim.csv,JOLVersionA.csv,"JOL Mixed A","JOL Mixed A",Shell,SHAKE,Study2,U,163,84,Study,4,4,,Study/JOL,"Study Phase2",84,JOL,5,5,"Study Phase2","How likely are you to correctly recall the second item in the pair?|Type your response on a scale from 0-100 and then press Enter.",4002,,,-1,-1,,,,0,5010,1135,1135,1,1
w10090932,bq34jr07bv,Nick_Dissertation_EX2_EP,1,129,2022-04-04T01:42:57+00:00,9.7924389839172,13,Mixed_Stim.csv,JOLVersionA.csv,"JOL Mixed A","JOL Mixed A",DOCUMENT,PAPER,Study2,F,109,68,Study,4,4,,Study/JOL,"Study Phase2",68,JOL,5,5,"Study Phase2","How likely are you to correctly recall the second item in the pair?|Type your response on a scale from 0-100 and then press Enter.",4001,,,-1,-1,,,,80,5009,2347,2596,1,1
w10090932,bq34jr07bv,Nick_Dissertation_EX2_EP,1,130,2022-04-04T01:43:07+00:00,9.7999351024628,13,Mixed_Stim.csv,JOLVersionA.csv,"JOL Mixed A","JOL Mixed A",CRACKLE,ABLE,Study2,U,162,95,Study,4,4,,Study/JOL,"Study Phase2",95,JOL,5,5,"Study Phase2","How likely are you to correctly recall the second item in the pair?|Type your response on a scale from 0-100 and then press Enter.",4001,,,-1,-1,,,,40,5009,1332,1464,1,1
w10090932,bq34jr07bv,Nick_Dissertation_EX2_EP,1,131,2022-04-04T01:43:17+00:00,9.8122138977051,13,Mixed_Stim.csv,JOLVersionA.csv,"JOL Mixed A","JOL Mixed A",SCALP,HEAD,Study2,F,105,78,Study,4,4,,Study/JOL,"Study Phase2",78,JOL,5,5,"Study Phase2","How likely are you to correctly recall the second item in the pair?|Type your response on a scale from 0-100 and then press Enter.",4001,,,-1,-1,,,,90,5009,2662,2812,1,1
w10090932,bq34jr07bv,Nick_Dissertation_EX2_EP,1,132,2022-04-04T01:43:27+00:00,9.7827301025391,13,Mixed_Stim.csv,JOLVersionA.csv,"JOL Mixed A","JOL Mixed A",MAZE,ELECTION,Study2,U,159,62,Study,4,4,,Study/JOL,"Study Phase2",62,JOL,5,5,"Study Phase2","How likely are you to correctly recall the second item in the pair?|Type your response on a scale from 0-100 and then press Enter.",4001,,,-1,-1,,,,0,5009,422,422,1,1
w10090932,bq34jr07bv,Nick_Dissertation_EX2_EP,1,133,2022-04-04T01:43:36+00:00,9.7969310283661,13,Mixed_Stim.csv,JOLVersionA.csv,"JOL Mixed A","JOL Mixed A",MAIN,SCAR,Study2,U,175,90,Study,4,4,,Study/JOL,"Study Phase2",90,JOL,5,5,"Study Phase2","How likely are you to correctly recall the second item in the pair?|Type your response on a scale from 0-100 and then press Enter.",4002,,,-1,-1,,,,,5009,-1,-1,1,1
w10090932,bq34jr07bv,Nick_Dissertation_EX2_EP,1,134,2022-04-04T01:43:46+00:00,9.7722220420837,13,Mixed_Stim.csv,JOLVersionA.csv,"JOL Mixed A","JOL Mixed A",TEMPERATURE,Morning,Study2,U,173,92,Study,4,4,,Study/JOL,"Study Phase2",92,JOL,5,5,"Study Phase2","How likely are you to correctly recall the second item in the pair?|Type your response on a scale from 0-100 and then press Enter.",4001,,,-1,-1,,,,50,5010,2636,3303,1,1
w10090932,bq34jr07bv,Nick_Dissertation_EX2_EP,1,135,2022-04-04T01:43:56+00:00,9.7860629558563,13,Mixed_Stim.csv,JOLVersionA.csv,"JOL Mixed A","JOL Mixed A",CHERRY,RED,Study2,F,104,71,Study,4,4,,Study/JOL,"Study Phase2",71,JOL,5,5,"Study Phase2","How likely are you to correctly recall the second item in the pair?|Type your response on a scale from 0-100 and then press Enter.",4001,,,-1,-1,,,,70,5010,401,954,1,1
w10090932,bq34jr07bv,Nick_Dissertation_EX2_EP,1,136,2022-04-04T01:44:06+00:00,9.7642409801483,13,Mixed_Stim.csv,JOLVersionA.csv,"JOL Mixed A","JOL Mixed A",FUZZY,BANG,Study2,U,168,88,Study,4,4,,Study/JOL,"Study Phase2",88,JOL,5,5,"Study Phase2","How likely are you to correctly recall the second item in the pair?|Type your response on a scale from 0-100 and then press Enter.",4001,,,-1,-1,,,,25,5009,1577,2164,1,1
w10090932,bq34jr07bv,Nick_Dissertation_EX2_EP,1,137,2022-04-04T01:44:16+00:00,9.7829780578613,13,Mixed_Stim.csv,JOLVersionA.csv,"JOL Mixed A","JOL Mixed A",KEYS,JOKE,Study2,U,165,73,Study,4,4,,Study/JOL,"Study Phase2",73,JOL,5,5,"Study Phase2","How likely are you to correctly recall the second item in the pair?|Type your response on a scale from 0-100 and then press Enter.",4001,,,-1,-1,,,,5,5010,365,365,1,1
w10090932,bq34jr07bv,Nick_Dissertation_EX2_EP,1,138,2022-04-04T01:44:26+00:00,10.203212976456,13,Mixed_Stim.csv,JOLVersionA.csv,"JOL Mixed A","JOL Mixed A",LISTEN,FICTION,Study2,U,164,80,Study,4,4,,Study/JOL,"Study Phase2",80,JOL,5,5,"Study Phase2","How likely are you to correctly recall the second item in the pair?|Type your response on a scale from 0-100 and then press Enter.",4003,,,-1,-1,,,,10,5010,1211,1364,1,1
w10090932,bq34jr07bv,Nick_Dissertation_EX2_EP,1,139,2022-04-04T01:44:36+00:00,9.8146150112152,13,Mixed_Stim.csv,JOLVersionA.csv,"JOL Mixed A","JOL Mixed A",DRIVER,CAR,Study2,F,106,86,Study,4,4,,Study/JOL,"Study Phase2",86,JOL,5,5,"Study Phase2","How likely are you to correctly recall the second item in the pair?|Type your response on a scale from 0-100 and then press Enter.",4001,,,-1,-1,,,,60,5008,1782,2251,1,1
w10090932,bq34jr07bv,Nick_Dissertation_EX2_EP,1,140,2022-04-04T01:44:46+00:00,9.9811668395996,13,Mixed_Stim.csv,JOLVersionA.csv,"JOL Mixed A","JOL Mixed A",INCENSE,SMELL,Study2,F,110,64,Study,4,4,,Study/JOL,"Study Phase2",64,JOL,5,5,"Study Phase2","How likely are you to correctly recall the second item in the pair?|Type your response on a scale from 0-100 and then press Enter.",4001,,,-1,-1,,,,100,5010,2784,3096,1,1
w10090932,bq34jr07bv,Nick_Dissertation_EX2_EP,1,141,2022-04-04T01:44:55+00:00,9.9803230762482,13,Mixed_Stim.csv,JOLVersionA.csv,"JOL Mixed A","JOL Mixed A",CLUE,GAME,Study2,F,97,94,Study,4,4,,Study/JOL,"Study Phase2",94,JOL,5,5,"Study Phase2","How likely are you to correctly recall the second item in the pair?|Type your response on a scale from 0-100 and then press Enter.",4001,,,-1,-1,,,,5,5009,3441,3441,1,1
w10090932,bq34jr07bv,Nick_Dissertation_EX2_EP,1,142,2022-04-04T01:45:05+00:00,9.8141810894012,13,Mixed_Stim.csv,JOLVersionA.csv,"JOL Mixed A","JOL Mixed A",NAME,HATE,Study2,U,167,74,Study,4,4,,Study/JOL,"Study Phase2",74,JOL,5,5,"Study Phase2","How likely are you to correctly recall the second item in the pair?|Type your response on a scale from 0-100 and then press Enter.",4002,,,-1,-1,,,,0,5015,779,779,1,1
w10090932,bq34jr07bv,Nick_Dissertation_EX2_EP,1,143,2022-04-04T01:45:15+00:00,9.7845439910889,13,Mixed_Stim.csv,JOLVersionA.csv,"JOL Mixed A","JOL Mixed A",DETECTIVE,MYSTERY,Study2,F,100,65,Study,4,4,,Study/JOL,"Study Phase2",65,JOL,5,5,"Study Phase2","How likely are you to correctly recall the second item in the pair?|Type your response on a scale from 0-100 and then press Enter.",4001,,,-1,-1,,,,80,5011,570,890,1,1
w10090932,bq34jr07bv,Nick_Dissertation_EX2_EP,1,144,2022-04-04T01:45:25+00:00,10.007861852646,13,Mixed_Stim.csv,JOLVersionA.csv,"JOL Mixed A","JOL Mixed A",CACTUS,PLANT,Study2,F,98,57,Study,4,4,,Study/JOL,"Study Phase2",57,JOL,5,5,"Study Phase2","How likely are you to correctly recall the second item in the pair?|Type your response on a scale from 0-100 and then press Enter.",4002,,,-1,-1,,,,100,5012,603,974,1,1
w10090932,bq34jr07bv,Nick_Dissertation_EX2_EP,1,145,2022-04-04T01:45:35+00:00,9.7856659889221,13,Mixed_Stim.csv,JOLVersionA.csv,"JOL Mixed A","JOL Mixed A",CAKE,CLOTHES,Study2,U,166,77,Study,4,4,,Study/JOL,"Study Phase2",77,JOL,5,5,"Study Phase2","How likely are you to correctly recall the second item in the pair?|Type your response on a scale from 0-100 and then press Enter.",4003,,,-1,-1,,,,,5009,-1,-1,1,1
w10090932,bq34jr07bv,Nick_Dissertation_EX2_EP,1,146,2022-04-04T01:45:45+00:00,9.7616600990295,13,Mixed_Stim.csv,JOLVersionA.csv,"JOL Mixed A","JOL Mixed A",DINE,EAT,Study2,F,111,72,Study,4,4,,Study/JOL,"Study Phase2",72,JOL,5,5,"Study Phase2","How likely are you to correctly recall the second item in the pair?|Type your response on a scale from 0-100 and then press Enter.",4002,,,-1,-1,,,,100,5010,1480,1927,1,1
w10090932,bq34jr07bv,Nick_Dissertation_EX2_EP,1,147,2022-04-04T01:45:55+00:00,10.001933097839,13,Mixed_Stim.csv,JOLVersionA.csv,"JOL Mixed A","JOL Mixed A",SPRING,MARCH,BUFFER4,Buffer,179,100,Study,4,4,,Study/JOL,BUFFER4,100,JOL,5,5,BUFFER4,"How likely are you to correctly recall the second item in the pair?|Type your response on a scale from 0-100 and then press Enter.",4002,,,-1,-1,,,,90,5009,1136,1304,1,1
w10090932,bq34jr07bv,Nick_Dissertation_EX2_EP,1,148,2022-04-04T01:46:04+00:00,9.8295829296112,13,Mixed_Stim.csv,JOLVersionA.csv,"JOL Mixed A","JOL Mixed A",DAYS,WEAKS,BUFFER4,Buffer,176,99,Study,4,4,,Study/JOL,BUFFER4,99,JOL,5,5,BUFFER4,"How likely are you to correctly recall the second item in the pair?|Type your response on a scale from 0-100 and then press Enter.",4002,,,-1,-1,,,,30,5010,2516,3229,1,1
w10090932,bq34jr07bv,Nick_Dissertation_EX2_EP,1,149,2022-04-04T01:46:14+00:00,9.7894279956818,13,Mixed_Stim.csv,JOLVersionA.csv,"JOL Mixed A","JOL Mixed A",TOOL,SHED,BUFFER4,Buffer,178,98,Study,4,4,,Study/JOL,BUFFER4,98,JOL,5,5,BUFFER4,"How likely are you to correctly recall the second item in the pair?|Type your response on a scale from 0-100 and then press Enter.",4002,,,-1,-1,,,,90,5010,1541,1738,1,1
w10090932,bq34jr07bv,Nick_Dissertation_EX2_EP,1,150,2022-04-04T01:46:24+00:00,9.8076860904694,13,Mixed_Stim.csv,JOLVersionA.csv,"JOL Mixed A","JOL Mixed A",MONTH,YEAR,BUFFER4,Buffer,177,97,Study,4,4,,Study/JOL,BUFFER4,97,JOL,5,5,BUFFER4,"How likely are you to correctly recall the second item in the pair?|Type your response on a scale from 0-100 and then press Enter.",4001,,,-1,-1,,,,100,5009,1393,1993,1,1
w10090932,bq34jr07bv,Nick_Dissertation_EX2_EP,1,151,2022-04-04T01:46:34+00:00,9.7834098339081,13,Mixed_Stim.csv,JOLVersionA.csv,"JOL Mixed A","JOL Mixed A",OCTOBER,SPOOKY,BUFFER4,Buffer,180,101,Study,4,4,,Study/JOL,BUFFER4,101,JOL,5,5,BUFFER4,"How likely are you to correctly recall the second item in the pair?|Type your response on a scale from 0-100 and then press Enter.",4001,,,-1,-1,,,,80,5008,2767,3033,1,1
w10090932,bq34jr07bv,Nick_Dissertation_EX2_EP,1,152,2022-04-04T01:46:37+00:00,2.7006521224976,13,Mixed_Stim.csv,JOLVersionA.csv,"JOL Mixed A","JOL Mixed A",,,,,,0,Instruct,User,-,"You have completed this section. Please press Enter.",Filler_Instruction,Instruct5,,No,,,,,2479,,,-1,-1,,,,,,,,1,
w10090932,bq34jr07bv,Nick_Dissertation_EX2_EP,1,153,2022-04-04T01:48:37+00:00,120.37459492683,13,Mixed_Stim.csv,JOLVersionA.csv,"JOL Mixed A","JOL Mixed A",,,,,,0,FreeRecall,120,120,"Please list the 50 US states in reverse alphabetical order (z - a). The task will automatically advance to the next screen after two minutes.",,Filler2,,No,,,,,120004,"Wyoming, Wisconsin, west Virginia, Washington, Virginia, Vermont, Utah, Texas, Tennessee, South Dakota, South Carolina, Rhode Island, Pennsylvania, Oregon, Oklahoma, Ohio, North Dakota, North Carolina, New York,",0,13641,119965,0,0,,,,,,1,
w10090932,bq34jr07bv,Nick_Dissertation_EX2_EP,1,154,2022-04-04T01:48:57+00:00,20.305260896683,13,Mixed_Stim.csv,JOLVersionA.csv,"JOL Mixed A","JOL Mixed A",,,,,,0,Instruct,-,10,"You will now be presented with the first word from each of the previously studied item pairs. Please type the missing word. If you do not know the word, you may guess or press Enter to skip forward to the next pair.",,Instruct6,,No,,,,,16129,,,-1,-1,,,,,,,,1,
w10090932,bq34jr07bv,Nick_Dissertation_EX2_EP,1,155,2022-04-04T01:49:01+00:00,4.1383261680603,13,Mixed_Stim.csv,JOLVersionA.csv,"JOL Mixed A","JOL Mixed A",MIRROR,CHILDREN,Study2,U,174,76,Test,User,-,,Recall,Recall2,,No,,,,,3934,wall,16.666666666667,3225,3630,0,0,,,,,,1,
w10090932,bq34jr07bv,Nick_Dissertation_EX2_EP,1,156,2022-04-04T01:49:06+00:00,4.7876038551331,13,Mixed_Stim.csv,JOLVersionA.csv,"JOL Mixed A","JOL Mixed A",SHEARS,SCISSORS,Study2,F,112,59,Test,User,-,,Recall,Recall2,,No,,,,,4156,scissors,100,2190,3955,1,1,,,,,,1,
w10090932,bq34jr07bv,Nick_Dissertation_EX2_EP,1,157,2022-04-04T01:49:12+00:00,5.475711107254,13,Mixed_Stim.csv,JOLVersionA.csv,"JOL Mixed A","JOL Mixed A",STRETCH,CLOTH,Study2,U,157,85,Test,User,-,,Recall,Recall2,,No,,,,,4881,leg,25,4035,4436,0,0,,,,,,1,
w10090932,bq34jr07bv,Nick_Dissertation_EX2_EP,1,158,2022-04-04T01:49:14+00:00,2.7659339904785,13,Mixed_Stim.csv,JOLVersionA.csv,"JOL Mixed A","JOL Mixed A",KEYS,JOKE,Study2,U,165,73,Test,User,-,,Recall,Recall2,,No,,,,,2569,chain,0,1632,2320,0,0,,,,,,1,
w10090932,bq34jr07bv,Nick_Dissertation_EX2_EP,1,159,2022-04-04T01:49:18+00:00,4.0838260650635,13,Mixed_Stim.csv,JOLVersionA.csv,"JOL Mixed A","JOL Mixed A",SHEARS,SCISSORS,Study2,F,112,59,Test,User,-,,Recall,Recall2,,No,,,,,3738,scissors,100,1909,3569,1,1,,,,,,1,
w10090932,bq34jr07bv,Nick_Dissertation_EX2_EP,1,160,2022-04-04T01:49:21+00:00,2.4763679504395,13,Mixed_Stim.csv,JOLVersionA.csv,"JOL Mixed A","JOL Mixed A",SCALP,HEAD,Study2,F,105,78,Test,User,-,,Recall,Recall2,,No,,,,,2276,head,100,1461,1941,1,1,,,,,,1,
w10090932,bq34jr07bv,Nick_Dissertation_EX2_EP,1,161,2022-04-04T01:49:24+00:00,2.7833878993988,13,Mixed_Stim.csv,JOLVersionA.csv,"JOL Mixed A","JOL Mixed A",DOCUMENT,PAPER,Study2,F,109,68,Test,User,-,,Recall,Recall2,,No,,,,,2563,paper,100,1211,2091,1,1,,,,,,1,
w10090932,bq34jr07bv,Nick_Dissertation_EX2_EP,1,162,2022-04-04T01:49:27+00:00,2.9683411121368,13,Mixed_Stim.csv,JOLVersionA.csv,"JOL Mixed A","JOL Mixed A",CRACKLE,ABLE,Study2,U,162,95,Test,User,-,,Recall,Recall2,,No,,,,,2785,,0,-1,-1,0,0,,,,,,1,
w10090932,bq34jr07bv,Nick_Dissertation_EX2_EP,1,163,2022-04-04T01:49:32+00:00,5.089558839798,13,Mixed_Stim.csv,JOLVersionA.csv,"JOL Mixed A","JOL Mixed A",VEHICLE,CHARM,Study2,U,160,79,Test,User,-,,Recall,Recall2,,No,,,,,4711,car,75,3890,4234,0,1,,,,,,1,
w10090932,bq34jr07bv,Nick_Dissertation_EX2_EP,1,164,2022-04-04T01:49:34+00:00,2.5228891372681,13,Mixed_Stim.csv,JOLVersionA.csv,"JOL Mixed A","JOL Mixed A",MAIN,SCAR,Study2,U,175,90,Test,User,-,,Recall,Recall2,,No,,,,,2338,,0,-1,-1,0,0,,,,,,1,
w10090932,bq34jr07bv,Nick_Dissertation_EX2_EP,1,165,2022-04-04T01:49:36+00:00,1.86501288414,13,Mixed_Stim.csv,JOLVersionA.csv,"JOL Mixed A","JOL Mixed A",CLUE,GAME,Study2,F,97,94,Test,User,-,,Recall,Recall2,,No,,,,,1679,,0,-1,-1,0,0,,,,,,1,
w10090932,bq34jr07bv,Nick_Dissertation_EX2_EP,1,166,2022-04-04T01:49:41+00:00,4.5090370178223,13,Mixed_Stim.csv,JOLVersionA.csv,"JOL Mixed A","JOL Mixed A",CHERRY,RED,Study2,F,104,71,Test,User,-,,Recall,Recall2,,No,,,,,4140,red,100,3087,3874,1,1,,,,,,1,
w10090932,bq34jr07bv,Nick_Dissertation_EX2_EP,1,167,2022-04-04T01:49:46+00:00,5.5377881526947,13,Mixed_Stim.csv,JOLVersionA.csv,"JOL Mixed A","JOL Mixed A",DETECTIVE,MYSTERY,Study2,F,100,65,Test,User,-,,Recall,Recall2,,No,,,,,5134,cop,0,4324,4601,0,0,,,,,,1,
w10090932,bq34jr07bv,Nick_Dissertation_EX2_EP,1,168,2022-04-04T01:49:49+00:00,2.3348689079285,13,Mixed_Stim.csv,JOLVersionA.csv,"JOL Mixed A","JOL Mixed A",LISTEN,FICTION,Study2,U,164,80,Test,User,-,,Recall,Recall2,,No,,,,,2146,,0,-1,-1,0,0,,,,,,1,
w10090932,bq34jr07bv,Nick_Dissertation_EX2_EP,1,169,2022-04-04T01:49:54+00:00,5.1677119731903,13,Mixed_Stim.csv,JOLVersionA.csv,"JOL Mixed A","JOL Mixed A",CHILL,COLD,Study2,F,114,91,Test,User,-,,Recall,Recall2,,No,,,,,4786,cold,100,4258,4617,1,1,,,,,,1,
w10090932,bq34jr07bv,Nick_Dissertation_EX2_EP,1,170,2022-04-04T01:49:56+00:00,2.4084930419922,13,Mixed_Stim.csv,JOLVersionA.csv,"JOL Mixed A","JOL Mixed A",FUZZY,BANG,Study2,U,168,88,Test,User,-,,Recall,Recall2,,No,,,,,2205,dog,28.571428571429,1688,1951,0,0,,,,,,1,
w10090932,bq34jr07bv,Nick_Dissertation_EX2_EP,1,171,2022-04-04T01:49:59+00:00,2.4690260887146,13,Mixed_Stim.csv,JOLVersionA.csv,"JOL Mixed A","JOL Mixed A",CACTUS,PLANT,Study2,F,98,57,Test,User,-,,Recall,Recall2,,No,,,,,2253,plant,100,1348,2054,1,1,,,,,,1,
w10090932,bq34jr07bv,Nick_Dissertation_EX2_EP,1,172,2022-04-04T01:50:04+00:00,5.6519689559937,13,Mixed_Stim.csv,JOLVersionA.csv,"JOL Mixed A","JOL Mixed A",JUSTICE,MAROON,Study2,U,156,96,Test,User,-,,Recall,Recall2,,No,,,,,5271,law,22.222222222222,4735,5001,0,0,,,,,,1,
w10090932,bq34jr07bv,Nick_Dissertation_EX2_EP,1,173,2022-04-04T01:50:06+00:00,1.5971050262451,13,Mixed_Stim.csv,JOLVersionA.csv,"JOL Mixed A","JOL Mixed A",BOTH,OUNCE,Study2,U,172,82,Test,User,-,,Recall,Recall2,,No,,,,,1400,,0,-1,-1,0,0,,,,,,1,
w10090932,bq34jr07bv,Nick_Dissertation_EX2_EP,1,174,2022-04-04T01:50:07+00:00,1.1251068115234,13,Mixed_Stim.csv,JOLVersionA.csv,"JOL Mixed A","JOL Mixed A",MOAT,CLEAR,Study2,U,169,69,Test,User,-,,Recall,Recall2,,No,,,,,916,,0,-1,-1,0,0,,,,,,1,
w10090932,bq34jr07bv,Nick_Dissertation_EX2_EP,1,175,2022-04-04T01:50:10+00:00,2.7594590187073,13,Mixed_Stim.csv,JOLVersionA.csv,"JOL Mixed A","JOL Mixed A",FEUD,FIGHT,Study2,F,113,61,Test,User,-,,Recall,Recall2,,No,,,,,2565,,0,-1,-1,0,0,,,,,,1,
w10090932,bq34jr07bv,Nick_Dissertation_EX2_EP,1,176,2022-04-04T01:50:14+00:00,4.7252311706543,13,Mixed_Stim.csv,JOLVersionA.csv,"JOL Mixed A","JOL Mixed A",ARTERY,BRONZE,Study1,U,74,23,Test,User,-,,Recall,Recall2,,No,,,,,4353,bronze,100,2238,4106,1,1,,,,,,1,
w10090932,bq34jr07bv,Nick_Dissertation_EX2_EP,1,177,2022-04-04T01:50:17+00:00,2.0765509605408,13,Mixed_Stim.csv,JOLVersionA.csv,"JOL Mixed A","JOL Mixed A",AFFECTION,LOVE,Study2,F,115,87,Test,User,-,,Recall,Recall2,,No,,,,,1866,love,100,1200,1697,1,1,,,,,,1,
w10090932,bq34jr07bv,Nick_Dissertation_EX2_EP,1,178,2022-04-04T01:50:18+00:00,1.5406720638275,13,Mixed_Stim.csv,JOLVersionA.csv,"JOL Mixed A","JOL Mixed A",NAME,HATE,Study2,U,167,74,Test,User,-,,Recall,Recall2,,No,,,,,1353,,0,-1,-1,0,0,,,,,,1,
w10090932,bq34jr07bv,Nick_Dissertation_EX2_EP,1,179,2022-04-04T01:50:26+00:00,8.0085098743439,13,Mixed_Stim.csv,JOLVersionA.csv,"JOL Mixed A","JOL Mixed A",DINE,EAT,Study2,F,111,72,Test,User,-,,Recall,Recall2,,No,,,,,7630,dinner,22.222222222222,6417,7431,0,0,,,,,,1,
w10090932,bq34jr07bv,Nick_Dissertation_EX2_EP,1,180,2022-04-04T01:50:29+00:00,2.6748459339142,13,Mixed_Stim.csv,JOLVersionA.csv,"JOL Mixed A","JOL Mixed A",SHOELACE,TIE,Study2,F,99,63,Test,User,-,,Recall,Recall2,,No,,,,,2456,tie,100,1909,2212,1,1,,,,,,1,
w10090932,bq34jr07bv,Nick_Dissertation_EX2_EP,1,181,2022-04-04T01:50:30+00:00,1.3831031322479,13,Mixed_Stim.csv,JOLVersionA.csv,"JOL Mixed A","JOL Mixed A",CHOP,CUT,Study2,F,107,93,Test,User,-,,Recall,Recall2,,No,,,,,1199,,0,-1,-1,0,0,,,,,,1,
w10090932,bq34jr07bv,Nick_Dissertation_EX2_EP,1,182,2022-04-04T01:50:37+00:00,7.23477602005,13,Mixed_Stim.csv,JOLVersionA.csv,"JOL Mixed A","JOL Mixed A",FURRY,DOG,Study2,F,102,89,Test,User,-,,Recall,Recall2,,No,,,,,6861,lamb,0,5217,6508,0,0,,,,,,1,
w10090932,bq34jr07bv,Nick_Dissertation_EX2_EP,1,183,2022-04-04T01:50:39+00:00,1.3463900089264,13,Mixed_Stim.csv,JOLVersionA.csv,"JOL Mixed A","JOL Mixed A",MULE,DONKEY,Study2,F,108,81,Test,User,-,,Recall,Recall2,,No,,,,,1146,,0,-1,-1,0,0,,,,,,1,
w10090932,bq34jr07bv,Nick_Dissertation_EX2_EP,1,184,2022-04-04T01:50:42+00:00,3.5044448375702,13,Mixed_Stim.csv,JOLVersionA.csv,"JOL Mixed A","JOL Mixed A",INCENSE,SMELL,Study2,F,110,64,Test,User,-,,Recall,Recall2,,No,,,,,3296,scent,40,2487,3097,0,0,,,,,,1,
w10090932,bq34jr07bv,Nick_Dissertation_EX2_EP,1,185,2022-04-04T01:50:44+00:00,1.9309241771698,13,Mixed_Stim.csv,JOLVersionA.csv,"JOL Mixed A","JOL Mixed A",GIVE,STEAK,Study2,U,158,70,Test,User,-,,Recall,Recall2,,No,,,,,1743,,0,-1,-1,0,0,,,,,,1,
w10090932,bq34jr07bv,Nick_Dissertation_EX2_EP,1,186,2022-04-04T01:50:53+00:00,8.472846031189,13,Mixed_Stim.csv,JOLVersionA.csv,"JOL Mixed A","JOL Mixed A",CAKE,CLOTHES,Study2,U,166,77,Test,User,-,,Recall,Recall2,,No,,,,,8090,,0,1849,2208,0,0,,,,,,1,
w10090932,bq34jr07bv,Nick_Dissertation_EX2_EP,1,187,2022-04-04T01:50:55+00:00,2.7339498996735,13,Mixed_Stim.csv,JOLVersionA.csv,"JOL Mixed A","JOL Mixed A",EXTENSION,LONG,Study2,F,96,66,Test,User,-,,Recall,Recall2,,No,,,,,2524,long,100,1572,2095,1,1,,,,,,1,
w10090932,bq34jr07bv,Nick_Dissertation_EX2_EP,1,188,2022-04-04T01:50:58+00:00,2.7418169975281,13,Mixed_Stim.csv,JOLVersionA.csv,"JOL Mixed A","JOL Mixed A",LEASE,TOIL,Study2,U,170,67,Test,User,-,,Recall,Recall2,,No,,,,,2550,,0,-1,-1,0,0,,,,,,1,
w10090932,bq34jr07bv,Nick_Dissertation_EX2_EP,1,189,2022-04-04T01:51:03+00:00,4.3921210765839,13,Mixed_Stim.csv,JOLVersionA.csv,"JOL Mixed A","JOL Mixed A",DRIVER,CAR,Study2,F,106,86,Test,User,-,,Recall,Recall2,,No,,,,,4022,car,100,3420,3772,1,1,,,,,,1,
w10090932,bq34jr07bv,Nick_Dissertation_EX2_EP,1,190,2022-04-04T01:51:04+00:00,1.1985769271851,13,Mixed_Stim.csv,JOLVersionA.csv,"JOL Mixed A","JOL Mixed A",MEAT,OBTAIN,Study2,U,161,75,Test,User,-,,Recall,Recall2,,No,,,,,1002,,0,-1,-1,0,0,,,,,,1,
w10090932,bq34jr07bv,Nick_Dissertation_EX2_EP,1,191,2022-04-04T01:51:10+00:00,6.4310019016266,13,Mixed_Stim.csv,JOLVersionA.csv,"JOL Mixed A","JOL Mixed A",TEMPERATURE,Morning,Study2,U,173,92,Test,User,-,,Recall,Recall2,,No,,,,,6034,cold,18.181818181818,117,5846,0,0,,,,,,1,
w10090932,bq34jr07bv,Nick_Dissertation_EX2_EP,1,192,2022-04-04T01:51:13+00:00,2.3464632034302,13,Mixed_Stim.csv,JOLVersionA.csv,"JOL Mixed A","JOL Mixed A",Shell,SHAKE,Study2,U,163,84,Test,User,-,,Recall,Recall2,,No,,,,,2146,,0,-1,-1,0,0,,,,,,1,
w10090932,bq34jr07bv,Nick_Dissertation_EX2_EP,1,193,2022-04-04T01:51:14+00:00,1.6711077690125,13,Mixed_Stim.csv,JOLVersionA.csv,"JOL Mixed A","JOL Mixed A",MAZE,ELECTION,Study2,U,159,62,Test,User,-,,Recall,Recall2,,No,,,,,1489,,0,-1,-1,0,0,,,,,,1,
w10090932,bq34jr07bv,Nick_Dissertation_EX2_EP,1,194,2022-04-04T01:51:19+00:00,5.1813580989838,13,Mixed_Stim.csv,JOLVersionA.csv,"JOL Mixed A","JOL Mixed A",LOAN,SIGN,Study2,U,171,60,Test,User,-,,Recall,Recall2,,No,,,,,4803,sign,100,4107,4571,1,1,,,,,,1,
w10090932,bq34jr07bv,Nick_Dissertation_EX2_EP,1,195,2022-04-04T01:51:22+00:00,2.7029271125793,13,Mixed_Stim.csv,JOLVersionA.csv,"JOL Mixed A","JOL Mixed A",,,,,,0,Instruct,User,-,"You have completed this section. Please press Enter.",,Instruct7,,No,,,,,2504,,,-1,-1,,,,,,,,1,
w10090932,bq34jr07bv,Nick_Dissertation_EX2_EP,1,196,2022-04-04T01:51:24+00:00,2.4163398742676,13,Mixed_Stim.csv,JOLVersionA.csv,"JOL Mixed A","JOL Mixed A",,,,,,0,Instruct,User,-,"The following screen will ask you a few questions abour your experience today. You must complete these questions to receive credit.",,Instruct8,,No,,,,,2224,,,-1,-1,,,,,,,,1,
