Username,ID,ExperimentName,Session,Trial,Date,TimeDif,"Condition Number","Stimuli File","Order File","Condition Description","Condition Notes",Stimuli*Cue,Stimuli*Answer,Stimuli*Shuffle,"Stimuli*Stimuli Notes",Stimuli*Value,Procedure*Item,"Procedure*Trial Type","Procedure*Max Time","Procedure*Min Time",Procedure*Text,"Procedure*Procedure Notes",Procedure*Shuffle,"Procedure*Post 1 Item","Procedure*Post 1 Trial Type","Procedure*Post 1 Max Time","Procedure*Post 1 Min Time",Procedure*,"Procedure*Post 1 Text",Response*RT,Response*Response,Response*Accuracy,Response*RTfirst,Response*RTlast,Response*strictAcc,Response*lenientAcc,Response*focus,Response*post1_JOL,Response*post1_RT,Response*post1_RTfirst,Response*post1_RTlast,Response*Focus,Response*post1_Focus
w10079472,eqdmnmi2fo,Nick_Dissertation_EX2_EP,1,1,2022-02-01T14:57:47+00:00,5.8912909030914,8,Mixed_Stim.csv,FREQVersionB.csv,"Freq Mixed B","Freq Mixed B",,,,,,0,Instruct,-,5,"In this section, you will be presented with a series of word pairs.",Initial_Instruct,Instruct1,,No,,,,,5736,,,-1,-1,,,,,,,,1
w10079472,eqdmnmi2fo,Nick_Dissertation_EX2_EP,1,2,2022-02-01T14:57:53+00:00,6.5273611545563,8,Mixed_Stim.csv,FREQVersionB.csv,"Freq Mixed B","Freq Mixed B",,,,,,0,Instruct,-,5,"As you study, you will be asked to rate how often the words in each pair are used together, using a 0-100 scale.",,Instruct13,,No,,,,,6323,,,-1,-1,,,,,,,,1
w10079472,eqdmnmi2fo,Nick_Dissertation_EX2_EP,1,3,2022-02-01T14:58:04+00:00,10.747846841812,8,Mixed_Stim.csv,FREQVersionB.csv,"Freq Mixed B","Freq Mixed B",,,,,,0,Instruct,-,10,"For example, if you are given the pair CAT - DOG, a rating of 0 indicates that the words DOG and CAT are not used together often in language, while a rating of 100 indicates that DOG and CAT are commonly used together.",,Instruct14,,No,,,,,10542,,,-1,-1,,,,,,,,1
w10079472,eqdmnmi2fo,Nick_Dissertation_EX2_EP,1,4,2022-02-01T14:58:20+00:00,15.724790096283,8,Mixed_Stim.csv,FREQVersionB.csv,"Freq Mixed B","Freq Mixed B",,,,,,0,Instruct,-,15,"When making your ratings, it is criticial that you use the full range of the scale. You will be disqualified for only giving ratings of 0 or 100! Each word will be displayed on the computer screen for 4 seconds. You will then have 4 seconds to make your rating. The screen will automatically move to the next pair when time is up.",,Instruct15,,No,,,,,15493,,,-1,-1,,,,,,,,1
w10079472,eqdmnmi2fo,Nick_Dissertation_EX2_EP,1,5,2022-02-01T14:58:29+00:00,9.0031960010529,8,Mixed_Stim.csv,FREQVersionB.csv,"Freq Mixed B","Freq Mixed B",,,,,,0,Instruct,User,-,"You will now begin the study. Press Enter when you are ready to begin.",,Instruct16,,No,,,,,8788,,,-1,-1,,,,,,,,1
w10079472,eqdmnmi2fo,Nick_Dissertation_EX2_EP,1,6,2022-02-01T14:58:38+00:00,9.4126698970795,8,Mixed_Stim.csv,FREQVersionB.csv,"Freq Mixed B","Freq Mixed B",NOODLE,STRING,BUFFER3,Buffer,92,56,Study,4,4,,Study/JOL,BUFFER,56,FREQ,5,5,,"How often are these two words used together?|Type your response on a scale from 0-100 and then press Enter.",4007,,,-1,-1,,,,67,5007,4360,4411,1,1
w10079472,eqdmnmi2fo,Nick_Dissertation_EX2_EP,1,7,2022-02-01T14:58:47+00:00,9.4078099727631,8,Mixed_Stim.csv,FREQVersionB.csv,"Freq Mixed B","Freq Mixed B",SHRIMP,FISH,BUFFER3,Buffer,93,55,Study,4,4,,Study/JOL,BUFFER,55,FREQ,5,5,,"How often are these two words used together?|Type your response on a scale from 0-100 and then press Enter.",4002,,,-1,-1,,,,97,5004,1107,1127,1,1
w10079472,eqdmnmi2fo,Nick_Dissertation_EX2_EP,1,8,2022-02-01T14:58:57+00:00,9.4312431812286,8,Mixed_Stim.csv,FREQVersionB.csv,"Freq Mixed B","Freq Mixed B",ICE,FROZEN,BUFFER3,Buffer,94,54,Study,4,4,,Study/JOL,BUFFER,54,FREQ,5,5,,"How often are these two words used together?|Type your response on a scale from 0-100 and then press Enter.",4001,,,-1,-1,,,,100,5006,483,692,1,1
w10079472,eqdmnmi2fo,Nick_Dissertation_EX2_EP,1,9,2022-02-01T14:59:06+00:00,9.4200229644775,8,Mixed_Stim.csv,FREQVersionB.csv,"Freq Mixed B","Freq Mixed B",CARROT,POTATO,BUFFER3,Buffer,91,52,Study,4,4,,Study/JOL,BUFFER,52,FREQ,5,5,,"How often are these two words used together?|Type your response on a scale from 0-100 and then press Enter.",4003,,,-1,-1,,,,37,5006,704,746,1,1
w10079472,eqdmnmi2fo,Nick_Dissertation_EX2_EP,1,10,2022-02-01T14:59:16+00:00,9.4345548152924,8,Mixed_Stim.csv,FREQVersionB.csv,"Freq Mixed B","Freq Mixed B",CAMP,ADVENTURE,BUFFER3,Buffer,95,53,Study,4,4,,Study/JOL,BUFFER,53,FREQ,5,5,,"How often are these two words used together?|Type your response on a scale from 0-100 and then press Enter.",4003,,,-1,-1,,,,85,5006,490,543,1,1
w10079472,eqdmnmi2fo,Nick_Dissertation_EX2_EP,1,11,2022-02-01T14:59:25+00:00,9.4370322227478,8,Mixed_Stim.csv,FREQVersionB.csv,"Freq Mixed B","Freq Mixed B",MIRROR,CHILDREN,Study2,U,174,90,Study,4,4,,Study/JOL,"Study Phase",90,FREQ,5,5,,"How often are these two words used together?|Type your response on a scale from 0-100 and then press Enter.",4002,,,-1,-1,,,,47,5005,3090,3135,1,1
w10079472,eqdmnmi2fo,Nick_Dissertation_EX2_EP,1,12,2022-02-01T14:59:36+00:00,10.605297803879,8,Mixed_Stim.csv,FREQVersionB.csv,"Freq Mixed B","Freq Mixed B",CHERRY,RED,Study2,F,104,61,Study,4,4,,Study/JOL,"Study Phase",61,FREQ,5,5,,"How often are these two words used together?|Type your response on a scale from 0-100 and then press Enter.",4002,,,-1,-1,,,,99,5008,454,548,1,1
w10079472,eqdmnmi2fo,Nick_Dissertation_EX2_EP,1,13,2022-02-01T14:59:45+00:00,9.4393451213837,8,Mixed_Stim.csv,FREQVersionB.csv,"Freq Mixed B","Freq Mixed B",DRIVER,CAR,Study2,F,106,77,Study,4,4,,Study/JOL,"Study Phase",77,FREQ,5,5,,"How often are these two words used together?|Type your response on a scale from 0-100 and then press Enter.",4002,,,-1,-1,,,,100,5006,449,671,1,1
w10079472,eqdmnmi2fo,Nick_Dissertation_EX2_EP,1,14,2022-02-01T14:59:55+00:00,9.4334750175476,8,Mixed_Stim.csv,FREQVersionB.csv,"Freq Mixed B","Freq Mixed B",VEHICLE,CHARM,Study2,U,160,72,Study,4,4,,Study/JOL,"Study Phase",72,FREQ,5,5,,"How often are these two words used together?|Type your response on a scale from 0-100 and then press Enter.",4001,,,-1,-1,,,,0,5005,1738,1738,1,1
w10079472,eqdmnmi2fo,Nick_Dissertation_EX2_EP,1,15,2022-02-01T15:00:04+00:00,9.4429819583893,8,Mixed_Stim.csv,FREQVersionB.csv,"Freq Mixed B","Freq Mixed B",MULE,DONKEY,Study2,F,108,64,Study,4,4,,Study/JOL,"Study Phase",64,FREQ,5,5,,"How often are these two words used together?|Type your response on a scale from 0-100 and then press Enter.",4002,,,-1,-1,,,,100,5006,1186,1368,1,1
w10079472,eqdmnmi2fo,Nick_Dissertation_EX2_EP,1,16,2022-02-01T15:00:13+00:00,9.4304099082947,8,Mixed_Stim.csv,FREQVersionB.csv,"Freq Mixed B","Freq Mixed B",MAZE,ELECTION,Study2,U,159,76,Study,4,4,,Study/JOL,"Study Phase",76,FREQ,5,5,,"How often are these two words used together?|Type your response on a scale from 0-100 and then press Enter.",4002,,,-1,-1,,,,12,5007,3390,3492,1,1
w10079472,eqdmnmi2fo,Nick_Dissertation_EX2_EP,1,17,2022-02-01T15:00:23+00:00,9.401887178421,8,Mixed_Stim.csv,FREQVersionB.csv,"Freq Mixed B","Freq Mixed B",TEMPERATURE,Morning,Study2,U,173,63,Study,4,4,,Study/JOL,"Study Phase",63,FREQ,5,5,,"How often are these two words used together?|Type your response on a scale from 0-100 and then press Enter.",4002,,,-1,-1,,,,96,5006,1582,1793,1,1
w10079472,eqdmnmi2fo,Nick_Dissertation_EX2_EP,1,18,2022-02-01T15:00:32+00:00,9.4266839027405,8,Mixed_Stim.csv,FREQVersionB.csv,"Freq Mixed B","Freq Mixed B",Shell,SHAKE,Study2,U,163,92,Study,4,4,,Study/JOL,"Study Phase",92,FREQ,5,5,,"How often are these two words used together?|Type your response on a scale from 0-100 and then press Enter.",4000,,,-1,-1,,,,15,5006,1240,1610,1,1
w10079472,eqdmnmi2fo,Nick_Dissertation_EX2_EP,1,19,2022-02-01T15:00:42+00:00,9.4333209991455,8,Mixed_Stim.csv,FREQVersionB.csv,"Freq Mixed B","Freq Mixed B",MEAT,OBTAIN,Study2,U,161,69,Study,4,4,,Study/JOL,"Study Phase",69,FREQ,5,5,,"How often are these two words used together?|Type your response on a scale from 0-100 and then press Enter.",4001,,,-1,-1,,,,4,5006,3185,3185,1,1
w10079472,eqdmnmi2fo,Nick_Dissertation_EX2_EP,1,20,2022-02-01T15:00:51+00:00,9.4282519817352,8,Mixed_Stim.csv,FREQVersionB.csv,"Freq Mixed B","Freq Mixed B",CAKE,CLOTHES,Study2,U,166,85,Study,4,4,,Study/JOL,"Study Phase",85,FREQ,5,5,,"How often are these two words used together?|Type your response on a scale from 0-100 and then press Enter.",4001,,,-1,-1,,,,2,5006,1913,1913,1,1
w10079472,eqdmnmi2fo,Nick_Dissertation_EX2_EP,1,21,2022-02-01T15:01:01+00:00,9.4674661159515,8,Mixed_Stim.csv,FREQVersionB.csv,"Freq Mixed B","Freq Mixed B",SHOELACE,TIE,Study2,F,99,81,Study,4,4,,Study/JOL,"Study Phase",81,FREQ,5,5,,"How often are these two words used together?|Type your response on a scale from 0-100 and then press Enter.",4002,,,-1,-1,,,,98,5006,1507,1520,1,1
w10079472,eqdmnmi2fo,Nick_Dissertation_EX2_EP,1,22,2022-02-01T15:01:10+00:00,9.4675879478455,8,Mixed_Stim.csv,FREQVersionB.csv,"Freq Mixed B","Freq Mixed B",LISTEN,FICTION,Study2,U,164,73,Study,4,4,,Study/JOL,"Study Phase",73,FREQ,5,5,,"How often are these two words used together?|Type your response on a scale from 0-100 and then press Enter.",4002,,,-1,-1,,,,59,5006,2956,3154,1,1
w10079472,eqdmnmi2fo,Nick_Dissertation_EX2_EP,1,23,2022-02-01T15:01:20+00:00,9.4752149581909,8,Mixed_Stim.csv,FREQVersionB.csv,"Freq Mixed B","Freq Mixed B",SCALP,HEAD,Study2,F,105,89,Study,4,4,,Study/JOL,"Study Phase",89,FREQ,5,5,,"How often are these two words used together?|Type your response on a scale from 0-100 and then press Enter.",4002,,,-1,-1,,,,97,5008,1604,1707,1,1
w10079472,eqdmnmi2fo,Nick_Dissertation_EX2_EP,1,24,2022-02-01T15:01:29+00:00,9.5147490501404,8,Mixed_Stim.csv,FREQVersionB.csv,"Freq Mixed B","Freq Mixed B",GIVE,STEAK,Study2,U,158,86,Study,4,4,,Study/JOL,"Study Phase",86,FREQ,5,5,,"How often are these two words used together?|Type your response on a scale from 0-100 and then press Enter.",4001,,,-1,-1,,,,68,5012,2834,2900,1,1
w10079472,eqdmnmi2fo,Nick_Dissertation_EX2_EP,1,25,2022-02-01T15:01:38+00:00,9.431403875351,8,Mixed_Stim.csv,FREQVersionB.csv,"Freq Mixed B","Freq Mixed B",LITTER,TRASH,Study2,F,103,84,Study,4,4,,Study/JOL,"Study Phase",84,FREQ,5,5,,"How often are these two words used together?|Type your response on a scale from 0-100 and then press Enter.",4002,,,-1,-1,,,,100,5008,921,1173,1,1
w10079472,eqdmnmi2fo,Nick_Dissertation_EX2_EP,1,26,2022-02-01T15:01:48+00:00,9.4249491691589,8,Mixed_Stim.csv,FREQVersionB.csv,"Freq Mixed B","Freq Mixed B",FUZZY,BANG,Study2,U,168,59,Study,4,4,,Study/JOL,"Study Phase",59,FREQ,5,5,,"How often are these two words used together?|Type your response on a scale from 0-100 and then press Enter.",4002,,,-1,-1,,,,11,5006,1215,1332,1,1
w10079472,eqdmnmi2fo,Nick_Dissertation_EX2_EP,1,27,2022-02-01T15:01:57+00:00,9.4334418773651,8,Mixed_Stim.csv,FREQVersionB.csv,"Freq Mixed B","Freq Mixed B",LEASE,TOIL,Study2,U,170,79,Study,4,4,,Study/JOL,"Study Phase",79,FREQ,5,5,,"How often are these two words used together?|Type your response on a scale from 0-100 and then press Enter.",4004,,,-1,-1,,,,1,5008,926,926,1,1
w10079472,eqdmnmi2fo,Nick_Dissertation_EX2_EP,1,28,2022-02-01T15:02:07+00:00,9.6005570888519,8,Mixed_Stim.csv,FREQVersionB.csv,"Freq Mixed B","Freq Mixed B",CHOP,CUT,Study2,F,107,74,Study,4,4,,Study/JOL,"Study Phase",74,FREQ,5,5,,"How often are these two words used together?|Type your response on a scale from 0-100 and then press Enter.",4002,,,-1,-1,,,,96,5006,2235,2264,1,1
w10079472,eqdmnmi2fo,Nick_Dissertation_EX2_EP,1,29,2022-02-01T15:02:16+00:00,9.4557490348816,8,Mixed_Stim.csv,FREQVersionB.csv,"Freq Mixed B","Freq Mixed B",DETECTIVE,MYSTERY,Study2,F,100,65,Study,4,4,,Study/JOL,"Study Phase",65,FREQ,5,5,,"How often are these two words used together?|Type your response on a scale from 0-100 and then press Enter.",4001,,,-1,-1,,,,100,5006,918,1542,1,1
w10079472,eqdmnmi2fo,Nick_Dissertation_EX2_EP,1,30,2022-02-01T15:02:26+00:00,9.4236099720001,8,Mixed_Stim.csv,FREQVersionB.csv,"Freq Mixed B","Freq Mixed B",ADJOURN,END,Study2,F,101,93,Study,4,4,,Study/JOL,"Study Phase",93,FREQ,5,5,,"How often are these two words used together?|Type your response on a scale from 0-100 and then press Enter.",4003,,,-1,-1,,,,85,5006,3218,3392,1,1
w10079472,eqdmnmi2fo,Nick_Dissertation_EX2_EP,1,31,2022-02-01T15:02:35+00:00,9.433611869812,8,Mixed_Stim.csv,FREQVersionB.csv,"Freq Mixed B","Freq Mixed B",CACTUS,PLANT,Study2,F,98,70,Study,4,4,,Study/JOL,"Study Phase",70,FREQ,5,5,,"How often are these two words used together?|Type your response on a scale from 0-100 and then press Enter.",4002,,,-1,-1,,,,94,5006,3381,3864,1,1
w10079472,eqdmnmi2fo,Nick_Dissertation_EX2_EP,1,32,2022-02-01T15:02:45+00:00,9.5387511253357,8,Mixed_Stim.csv,FREQVersionB.csv,"Freq Mixed B","Freq Mixed B",FUZZY,BANG,Study2,U,168,59,Study,4,4,,Study/JOL,"Study Phase",59,FREQ,5,5,,"How often are these two words used together?|Type your response on a scale from 0-100 and then press Enter.",4003,,,-1,-1,,,,26,5007,2028,2548,1,1
w10079472,eqdmnmi2fo,Nick_Dissertation_EX2_EP,1,33,2022-02-01T15:02:54+00:00,9.4427490234375,8,Mixed_Stim.csv,FREQVersionB.csv,"Freq Mixed B","Freq Mixed B",LOAN,SIGN,Study2,U,171,71,Study,4,4,,Study/JOL,"Study Phase",71,FREQ,5,5,,"How often are these two words used together?|Type your response on a scale from 0-100 and then press Enter.",4002,,,-1,-1,,,,94,5006,2933,3435,1,1
w10079472,eqdmnmi2fo,Nick_Dissertation_EX2_EP,1,34,2022-02-01T15:03:04+00:00,9.4554438591003,8,Mixed_Stim.csv,FREQVersionB.csv,"Freq Mixed B","Freq Mixed B",CRACKLE,ABLE,Study2,U,162,88,Study,4,4,,Study/JOL,"Study Phase",88,FREQ,5,5,,"How often are these two words used together?|Type your response on a scale from 0-100 and then press Enter.",4002,,,-1,-1,,,,0,5007,1029,1029,1,1
w10079472,eqdmnmi2fo,Nick_Dissertation_EX2_EP,1,35,2022-02-01T15:03:13+00:00,9.4471781253815,8,Mixed_Stim.csv,FREQVersionB.csv,"Freq Mixed B","Freq Mixed B",NAME,HATE,Study2,U,167,95,Study,4,4,,Study/JOL,"Study Phase",95,FREQ,5,5,,"How often are these two words used together?|Type your response on a scale from 0-100 and then press Enter.",4001,,,-1,-1,,,,36,5013,2325,2501,1,1
w10079472,eqdmnmi2fo,Nick_Dissertation_EX2_EP,1,36,2022-02-01T15:03:23+00:00,9.4251220226288,8,Mixed_Stim.csv,FREQVersionB.csv,"Freq Mixed B","Freq Mixed B",INCENSE,SMELL,Study2,F,110,60,Study,4,4,,Study/JOL,"Study Phase",60,FREQ,5,5,,"How often are these two words used together?|Type your response on a scale from 0-100 and then press Enter.",4002,,,-1,-1,,,,77,5006,2060,2207,1,1
w10079472,eqdmnmi2fo,Nick_Dissertation_EX2_EP,1,37,2022-02-01T15:03:32+00:00,9.4409739971161,8,Mixed_Stim.csv,FREQVersionB.csv,"Freq Mixed B","Freq Mixed B",CHILL,COLD,Study2,F,114,57,Study,4,4,,Study/JOL,"Study Phase",57,FREQ,5,5,,"How often are these two words used together?|Type your response on a scale from 0-100 and then press Enter.",4002,,,-1,-1,,,,100,5006,360,829,1,1
w10079472,eqdmnmi2fo,Nick_Dissertation_EX2_EP,1,38,2022-02-01T15:03:41+00:00,9.4760580062866,8,Mixed_Stim.csv,FREQVersionB.csv,"Freq Mixed B","Freq Mixed B",FEUD,FIGHT,Study2,F,113,67,Study,4,4,,Study/JOL,"Study Phase",67,FREQ,5,5,,"How often are these two words used together?|Type your response on a scale from 0-100 and then press Enter.",4003,,,-1,-1,,,,79,5007,1711,1870,1,1
w10079472,eqdmnmi2fo,Nick_Dissertation_EX2_EP,1,39,2022-02-01T15:03:51+00:00,9.4748499393463,8,Mixed_Stim.csv,FREQVersionB.csv,"Freq Mixed B","Freq Mixed B",DINE,EAT,Study2,F,111,80,Study,4,4,,Study/JOL,"Study Phase",80,FREQ,5,5,,"How often are these two words used together?|Type your response on a scale from 0-100 and then press Enter.",4008,,,-1,-1,,,,96,5006,2570,2634,1,1
w10079472,eqdmnmi2fo,Nick_Dissertation_EX2_EP,1,40,2022-02-01T15:04:00+00:00,9.436066865921,8,Mixed_Stim.csv,FREQVersionB.csv,"Freq Mixed B","Freq Mixed B",STRETCH,CLOTH,Study2,U,157,87,Study,4,4,,Study/JOL,"Study Phase",87,FREQ,5,5,,"How often are these two words used together?|Type your response on a scale from 0-100 and then press Enter.",4003,,,-1,-1,,,,63,5007,2843,3140,1,1
w10079472,eqdmnmi2fo,Nick_Dissertation_EX2_EP,1,41,2022-02-01T15:04:10+00:00,9.4201850891113,8,Mixed_Stim.csv,FREQVersionB.csv,"Freq Mixed B","Freq Mixed B",BOTH,OUNCE,Study2,U,172,82,Study,4,4,,Study/JOL,"Study Phase",82,FREQ,5,5,,"How often are these two words used together?|Type your response on a scale from 0-100 and then press Enter.",4001,,,-1,-1,,,,3,5005,1392,1392,1,1
w10079472,eqdmnmi2fo,Nick_Dissertation_EX2_EP,1,42,2022-02-01T15:04:19+00:00,9.4745481014252,8,Mixed_Stim.csv,FREQVersionB.csv,"Freq Mixed B","Freq Mixed B",FURRY,DOG,Study2,F,102,91,Study,4,4,,Study/JOL,"Study Phase",91,FREQ,5,5,,"How often are these two words used together?|Type your response on a scale from 0-100 and then press Enter.",4001,,,-1,-1,,,,69,5007,2486,2592,1,1
w10079472,eqdmnmi2fo,Nick_Dissertation_EX2_EP,1,43,2022-02-01T15:04:29+00:00,9.4126830101013,8,Mixed_Stim.csv,FREQVersionB.csv,"Freq Mixed B","Freq Mixed B",JUSTICE,MAROON,Study2,U,156,96,Study,4,4,,Study/JOL,"Study Phase",96,FREQ,5,5,,"How often are these two words used together?|Type your response on a scale from 0-100 and then press Enter.",4003,,,-1,-1,,,,0,5007,365,366,1,1
w10079472,eqdmnmi2fo,Nick_Dissertation_EX2_EP,1,44,2022-02-01T15:04:38+00:00,9.4299159049988,8,Mixed_Stim.csv,FREQVersionB.csv,"Freq Mixed B","Freq Mixed B",KEYS,JOKE,Study2,U,165,94,Study,4,4,,Study/JOL,"Study Phase",94,FREQ,5,5,,"How often are these two words used together?|Type your response on a scale from 0-100 and then press Enter.",4001,,,-1,-1,,,,12,5006,1570,1718,1,1
w10079472,eqdmnmi2fo,Nick_Dissertation_EX2_EP,1,45,2022-02-01T15:04:48+00:00,9.6408309936523,8,Mixed_Stim.csv,FREQVersionB.csv,"Freq Mixed B","Freq Mixed B",SHEARS,SCISSORS,Study2,F,112,78,Study,4,4,,Study/JOL,"Study Phase",78,FREQ,5,5,,"How often are these two words used together?|Type your response on a scale from 0-100 and then press Enter.",4002,,,-1,-1,,,,96,5006,2861,3163,1,1
w10079472,eqdmnmi2fo,Nick_Dissertation_EX2_EP,1,46,2022-02-01T15:04:57+00:00,9.4409439563751,8,Mixed_Stim.csv,FREQVersionB.csv,"Freq Mixed B","Freq Mixed B",MAIN,SCAR,Study2,U,175,68,Study,4,4,,Study/JOL,"Study Phase",68,FREQ,5,5,,"How often are these two words used together?|Type your response on a scale from 0-100 and then press Enter.",4002,,,-1,-1,,,,15,5007,2641,2872,1,1
w10079472,eqdmnmi2fo,Nick_Dissertation_EX2_EP,1,47,2022-02-01T15:05:08+00:00,10.469375133514,8,Mixed_Stim.csv,FREQVersionB.csv,"Freq Mixed B","Freq Mixed B",WAY,OUT,Study1,F,16,23,Study,4,4,,Study/JOL,"Study Phase",23,FREQ,5,5,,"How often are these two words used together?|Type your response on a scale from 0-100 and then press Enter.",4002,,,-1,-1,,,,100,5008,927,1090,1,1
w10079472,eqdmnmi2fo,Nick_Dissertation_EX2_EP,1,48,2022-02-01T15:05:17+00:00,9.4445898532867,8,Mixed_Stim.csv,FREQVersionB.csv,"Freq Mixed B","Freq Mixed B",AFFECTION,LOVE,Study2,F,115,62,Study,4,4,,Study/JOL,"Study Phase",62,FREQ,5,5,,"How often are these two words used together?|Type your response on a scale from 0-100 and then press Enter.",4001,,,-1,-1,,,,100,5007,584,1140,1,1
w10079472,eqdmnmi2fo,Nick_Dissertation_EX2_EP,1,49,2022-02-01T15:05:27+00:00,9.4380979537964,8,Mixed_Stim.csv,FREQVersionB.csv,"Freq Mixed B","Freq Mixed B",MOAT,CLEAR,Study2,U,169,66,Study,4,4,,Study/JOL,"Study Phase",66,FREQ,5,5,,"How often are these two words used together?|Type your response on a scale from 0-100 and then press Enter.",4002,,,-1,-1,,,,48,5007,2216,2424,1,1
w10079472,eqdmnmi2fo,Nick_Dissertation_EX2_EP,1,50,2022-02-01T15:05:36+00:00,9.4226541519165,8,Mixed_Stim.csv,FREQVersionB.csv,"Freq Mixed B","Freq Mixed B",DOCUMENT,PAPER,Study2,F,109,75,Study,4,4,,Study/JOL,"Study Phase",75,FREQ,5,5,,"How often are these two words used together?|Type your response on a scale from 0-100 and then press Enter.",4001,,,-1,-1,,,,90,5007,754,841,1,1
w10079472,eqdmnmi2fo,Nick_Dissertation_EX2_EP,1,51,2022-02-01T15:05:45+00:00,9.4211390018463,8,Mixed_Stim.csv,FREQVersionB.csv,"Freq Mixed B","Freq Mixed B",TOOL,SHED,BUFFER4,Buffer,178,97,Study,4,4,,Study/JOL,BUFFER2,97,FREQ,5,5,,"How often are these two words used together?|Type your response on a scale from 0-100 and then press Enter.",4002,,,-1,-1,,,,100,5005,744,1374,1,1
w10079472,eqdmnmi2fo,Nick_Dissertation_EX2_EP,1,52,2022-02-01T15:05:55+00:00,9.4051458835602,8,Mixed_Stim.csv,FREQVersionB.csv,"Freq Mixed B","Freq Mixed B",DAYS,WEAKS,BUFFER4,Buffer,176,100,Study,4,4,,Study/JOL,BUFFER2,100,FREQ,5,5,,"How often are these two words used together?|Type your response on a scale from 0-100 and then press Enter.",4002,,,-1,-1,,,,37,5006,3093,3626,1,1
w10079472,eqdmnmi2fo,Nick_Dissertation_EX2_EP,1,53,2022-02-01T15:06:04+00:00,9.4341390132904,8,Mixed_Stim.csv,FREQVersionB.csv,"Freq Mixed B","Freq Mixed B",OCTOBER,SPOOKY,BUFFER4,Buffer,180,99,Study,4,4,,Study/JOL,BUFFER2,99,FREQ,5,5,,"How often are these two words used together?|Type your response on a scale from 0-100 and then press Enter.",4001,,,-1,-1,,,,100,5007,298,504,1,1
w10079472,eqdmnmi2fo,Nick_Dissertation_EX2_EP,1,54,2022-02-01T15:06:14+00:00,9.4388160705566,8,Mixed_Stim.csv,FREQVersionB.csv,"Freq Mixed B","Freq Mixed B",SPRING,MARCH,BUFFER4,Buffer,179,101,Study,4,4,,Study/JOL,BUFFER2,101,FREQ,5,5,,"How often are these two words used together?|Type your response on a scale from 0-100 and then press Enter.",4002,,,-1,-1,,,,77,5005,1990,2118,1,1
w10079472,eqdmnmi2fo,Nick_Dissertation_EX2_EP,1,55,2022-02-01T15:06:23+00:00,9.4233169555664,8,Mixed_Stim.csv,FREQVersionB.csv,"Freq Mixed B","Freq Mixed B",MONTH,YEAR,BUFFER4,Buffer,177,98,Study,4,4,,Study/JOL,BUFFER2,98,FREQ,5,5,,"How often are these two words used together?|Type your response on a scale from 0-100 and then press Enter.",4002,,,-1,-1,,,,99,5006,847,954,1,1
w10079472,eqdmnmi2fo,Nick_Dissertation_EX2_EP,1,56,2022-02-01T15:06:26+00:00,2.4477610588074,8,Mixed_Stim.csv,FREQVersionB.csv,"Freq Mixed B","Freq Mixed B",,,,,,0,Instruct,User,-,"You have completed this section. Please press Enter.",Filler_Instruction,Instruct2,0,No,,,,,2279,,,-1,-1,,,,,,,,1,
w10079472,eqdmnmi2fo,Nick_Dissertation_EX2_EP,1,57,2022-02-01T15:08:26+00:00,120.40789198875,8,Mixed_Stim.csv,FREQVersionB.csv,"Freq Mixed B","Freq Mixed B",,,,,,0,FreeRecall,120,120,"Please list the 50 US states in alphabetical order. The task will automatically advance to the next screen after two minutes.",,Filler1,0,No,,,,,120002,"alabama, Alaska, arizona, arkansas, california, colorado, Connecticut, delware, florida, Georgia, hawaii, Idaho, Illinois, indiana, minisota, Michigan, New Jersey, New York, Oklahoma, pennesyl",0,8989,119359,0,0,,,,,,1,
w10079472,eqdmnmi2fo,Nick_Dissertation_EX2_EP,1,58,2022-02-01T15:08:37+00:00,10.84500002861,8,Mixed_Stim.csv,FREQVersionB.csv,"Freq Mixed B","Freq Mixed B",,,,,,0,Instruct,-,10,"You will now be presented with the first word from each of the previously studied item pairs. Please type the missing word. If you do not know the word, you may guess or press Enter to skip forward to the next pair.",,Instruct3,0,No,,,,,10635,,,308,308,,,,,,,,1,
w10079472,eqdmnmi2fo,Nick_Dissertation_EX2_EP,1,59,2022-02-01T15:08:41+00:00,3.8120219707489,8,Mixed_Stim.csv,FREQVersionB.csv,"Freq Mixed B","Freq Mixed B",MULE,DONKEY,Study2,F,108,64,Test,User,-,,Recall,Recall1,64,No,,,,,3625,donkey,100,1675,2445,1,1,,,,,,1,
w10079472,eqdmnmi2fo,Nick_Dissertation_EX2_EP,1,60,2022-02-01T15:08:45+00:00,3.9866659641266,8,Mixed_Stim.csv,FREQVersionB.csv,"Freq Mixed B","Freq Mixed B",WAY,OUT,Study1,F,16,23,Test,User,-,,Recall,Recall1,23,No,,,,,3836,out,100,1755,2817,1,1,,,,,,1,
w10079472,eqdmnmi2fo,Nick_Dissertation_EX2_EP,1,61,2022-02-01T15:08:49+00:00,4.7469189167023,8,Mixed_Stim.csv,FREQVersionB.csv,"Freq Mixed B","Freq Mixed B",SHEARS,SCISSORS,Study2,F,112,78,Test,User,-,,Recall,Recall1,78,No,,,,,4543,scissors,100,1108,3405,1,1,,,,,,1,
w10079472,eqdmnmi2fo,Nick_Dissertation_EX2_EP,1,62,2022-02-01T15:08:53+00:00,3.2967031002045,8,Mixed_Stim.csv,FREQVersionB.csv,"Freq Mixed B","Freq Mixed B",DINE,EAT,Study2,F,111,80,Test,User,-,,Recall,Recall1,80,No,,,,,3140,eat,100,1523,2457,1,1,,,,,,1,
w10079472,eqdmnmi2fo,Nick_Dissertation_EX2_EP,1,63,2022-02-01T15:09:00+00:00,7.8431921005249,8,Mixed_Stim.csv,FREQVersionB.csv,"Freq Mixed B","Freq Mixed B",GIVE,STEAK,Study2,U,158,86,Test,User,-,,Recall,Recall1,86,No,,,,,7622,take,66.666666666667,6220,6779,0,0,,,,,,1,
w10079472,eqdmnmi2fo,Nick_Dissertation_EX2_EP,1,64,2022-02-01T15:09:05+00:00,4.5231478214264,8,Mixed_Stim.csv,FREQVersionB.csv,"Freq Mixed B","Freq Mixed B",SCALP,HEAD,Study2,F,105,89,Test,User,-,,Recall,Recall1,89,No,,,,,4293,head,100,1107,3316,1,1,,,,,,1,
w10079472,eqdmnmi2fo,Nick_Dissertation_EX2_EP,1,65,2022-02-01T15:09:08+00:00,3.2063431739807,8,Mixed_Stim.csv,FREQVersionB.csv,"Freq Mixed B","Freq Mixed B",MIRROR,CHILDREN,Study2,U,174,90,Test,User,-,,Recall,Recall1,90,No,,,,,3055,children,100,1026,2255,1,1,,,,,,1,
w10079472,eqdmnmi2fo,Nick_Dissertation_EX2_EP,1,66,2022-02-01T15:09:12+00:00,3.7441430091858,8,Mixed_Stim.csv,FREQVersionB.csv,"Freq Mixed B","Freq Mixed B",LEASE,TOIL,Study2,U,170,79,Test,User,-,,Recall,Recall1,79,No,,,,,3562,sign,25,1248,1583,0,0,,,,,,1,
w10079472,eqdmnmi2fo,Nick_Dissertation_EX2_EP,1,67,2022-02-01T15:09:14+00:00,2.2639529705048,8,Mixed_Stim.csv,FREQVersionB.csv,"Freq Mixed B","Freq Mixed B",DRIVER,CAR,Study2,F,106,77,Test,User,-,,Recall,Recall1,77,No,,,,,2082,car,100,993,1256,1,1,,,,,,1,
w10079472,eqdmnmi2fo,Nick_Dissertation_EX2_EP,1,68,2022-02-01T15:09:17+00:00,2.5055048465729,8,Mixed_Stim.csv,FREQVersionB.csv,"Freq Mixed B","Freq Mixed B",CHILL,COLD,Study2,F,114,57,Test,User,-,,Recall,Recall1,57,No,,,,,2160,cold,100,1029,1341,1,1,,,,,,1,
w10079472,eqdmnmi2fo,Nick_Dissertation_EX2_EP,1,69,2022-02-01T15:09:19+00:00,2.5907590389252,8,Mixed_Stim.csv,FREQVersionB.csv,"Freq Mixed B","Freq Mixed B",AFFECTION,LOVE,Study2,F,115,62,Test,User,-,,Recall,Recall1,62,No,,,,,2410,love,100,1068,1475,1,1,,,,,,1,
w10079472,eqdmnmi2fo,Nick_Dissertation_EX2_EP,1,70,2022-02-01T15:09:22+00:00,2.6459600925446,8,Mixed_Stim.csv,FREQVersionB.csv,"Freq Mixed B","Freq Mixed B",MOAT,CLEAR,Study2,U,169,66,Test,User,-,,Recall,Recall1,66,No,,,,,2313,clear,100,1166,1606,1,1,,,,,,1,
w10079472,eqdmnmi2fo,Nick_Dissertation_EX2_EP,1,71,2022-02-01T15:09:26+00:00,4.1028568744659,8,Mixed_Stim.csv,FREQVersionB.csv,"Freq Mixed B","Freq Mixed B",DETECTIVE,MYSTERY,Study2,F,100,65,Test,User,-,,Recall,Recall1,65,No,,,,,3963,mystery,100,1275,2992,1,1,,,,,,1,
w10079472,eqdmnmi2fo,Nick_Dissertation_EX2_EP,1,72,2022-02-01T15:09:29+00:00,3.0276830196381,8,Mixed_Stim.csv,FREQVersionB.csv,"Freq Mixed B","Freq Mixed B",FUZZY,BANG,Study2,U,168,59,Test,User,-,,Recall,Recall1,59,No,,,,,2886,bang,100,1564,1905,1,1,,,,,,1,
w10079472,eqdmnmi2fo,Nick_Dissertation_EX2_EP,1,73,2022-02-01T15:09:45+00:00,15.547255039215,8,Mixed_Stim.csv,FREQVersionB.csv,"Freq Mixed B","Freq Mixed B",LISTEN,FICTION,Study2,U,164,73,Test,User,-,,Recall,Recall1,73,No,,,,,15226,music,33.333333333333,11248,14277,0,0,,,,,,1,
w10079472,eqdmnmi2fo,Nick_Dissertation_EX2_EP,1,74,2022-02-01T15:09:51+00:00,6.7744650840759,8,Mixed_Stim.csv,FREQVersionB.csv,"Freq Mixed B","Freq Mixed B",STRETCH,CLOTH,Study2,U,157,87,Test,User,-,,Recall,Recall1,87,No,,,,,6554,cloths,90.909090909091,3489,6334,0,1,,,,,,1,
w10079472,eqdmnmi2fo,Nick_Dissertation_EX2_EP,1,75,2022-02-01T15:09:54+00:00,2.5195729732513,8,Mixed_Stim.csv,FREQVersionB.csv,"Freq Mixed B","Freq Mixed B",INCENSE,SMELL,Study2,F,110,60,Test,User,-,,Recall,Recall1,60,No,,,,,2352,smell,100,973,1585,1,1,,,,,,1,
w10079472,eqdmnmi2fo,Nick_Dissertation_EX2_EP,1,76,2022-02-01T15:10:00+00:00,5.8275909423828,8,Mixed_Stim.csv,FREQVersionB.csv,"Freq Mixed B","Freq Mixed B",LOAN,SIGN,Study2,U,171,71,Test,User,-,,Recall,Recall1,71,No,,,,,5574,sign,100,4373,4626,1,1,,,,,,1,
w10079472,eqdmnmi2fo,Nick_Dissertation_EX2_EP,1,77,2022-02-01T15:10:04+00:00,4.3116629123688,8,Mixed_Stim.csv,FREQVersionB.csv,"Freq Mixed B","Freq Mixed B",MAZE,ELECTION,Study2,U,159,76,Test,User,-,,Recall,Recall1,76,No,,,,,4067,election,100,1286,3225,1,1,,,,,,1,
w10079472,eqdmnmi2fo,Nick_Dissertation_EX2_EP,1,78,2022-02-01T15:10:11+00:00,7.2009429931641,8,Mixed_Stim.csv,FREQVersionB.csv,"Freq Mixed B","Freq Mixed B",BOTH,OUNCE,Study2,U,172,82,Test,User,-,,Recall,Recall1,82,No,,,,,6967,ounce,100,5573,6127,1,1,,,,,,1,
w10079472,eqdmnmi2fo,Nick_Dissertation_EX2_EP,1,79,2022-02-01T15:10:14+00:00,2.929799079895,8,Mixed_Stim.csv,FREQVersionB.csv,"Freq Mixed B","Freq Mixed B",JUSTICE,MAROON,Study2,U,156,96,Test,User,-,,Recall,Recall1,96,No,,,,,2771,maroon,100,1147,1850,1,1,,,,,,1,
w10079472,eqdmnmi2fo,Nick_Dissertation_EX2_EP,1,80,2022-02-01T15:10:21+00:00,6.8340249061584,8,Mixed_Stim.csv,FREQVersionB.csv,"Freq Mixed B","Freq Mixed B",MAIN,SCAR,Study2,U,175,68,Test,User,-,,Recall,Recall1,68,No,,,,,6628,thing,0,5362,5707,0,0,,,,,,1,
w10079472,eqdmnmi2fo,Nick_Dissertation_EX2_EP,1,81,2022-02-01T15:10:23+00:00,2.4610090255737,8,Mixed_Stim.csv,FREQVersionB.csv,"Freq Mixed B","Freq Mixed B",KEYS,JOKE,Study2,U,165,94,Test,User,-,,Recall,Recall1,94,No,,,,,2312,joke,100,1163,1529,1,1,,,,,,1,
w10079472,eqdmnmi2fo,Nick_Dissertation_EX2_EP,1,82,2022-02-01T15:10:26+00:00,2.5962800979614,8,Mixed_Stim.csv,FREQVersionB.csv,"Freq Mixed B","Freq Mixed B",LITTER,TRASH,Study2,F,103,84,Test,User,-,,Recall,Recall1,84,No,,,,,2454,trash,100,991,1571,1,1,,,,,,1,
w10079472,eqdmnmi2fo,Nick_Dissertation_EX2_EP,1,83,2022-02-01T15:10:31+00:00,4.555643081665,8,Mixed_Stim.csv,FREQVersionB.csv,"Freq Mixed B","Freq Mixed B",MEAT,OBTAIN,Study2,U,161,69,Test,User,-,,Recall,Recall1,69,No,,,,,4328,obtain,100,2230,3602,1,1,,,,,,1,
w10079472,eqdmnmi2fo,Nick_Dissertation_EX2_EP,1,84,2022-02-01T15:10:33+00:00,2.5853350162506,8,Mixed_Stim.csv,FREQVersionB.csv,"Freq Mixed B","Freq Mixed B",NAME,HATE,Study2,U,167,95,Test,User,-,,Recall,Recall1,95,No,,,,,2447,hate,100,1183,1758,1,1,,,,,,1,
w10079472,eqdmnmi2fo,Nick_Dissertation_EX2_EP,1,85,2022-02-01T15:10:36+00:00,2.8055899143219,8,Mixed_Stim.csv,FREQVersionB.csv,"Freq Mixed B","Freq Mixed B",Shell,SHAKE,Study2,U,163,92,Test,User,-,,Recall,Recall1,92,No,,,,,2675,shake,100,1510,2022,1,1,,,,,,1,
w10079472,eqdmnmi2fo,Nick_Dissertation_EX2_EP,1,86,2022-02-01T15:10:38+00:00,2.1981399059296,8,Mixed_Stim.csv,FREQVersionB.csv,"Freq Mixed B","Freq Mixed B",CHOP,CUT,Study2,F,107,74,Test,User,-,,Recall,Recall1,74,No,,,,,2044,cut,100,1062,1263,1,1,,,,,,1,
w10079472,eqdmnmi2fo,Nick_Dissertation_EX2_EP,1,87,2022-02-01T15:10:45+00:00,6.311653137207,8,Mixed_Stim.csv,FREQVersionB.csv,"Freq Mixed B","Freq Mixed B",VEHICLE,CHARM,Study2,U,160,72,Test,User,-,,Recall,Recall1,72,No,,,,,6107,gate,22.222222222222,4787,5348,0,0,,,,,,1,
w10079472,eqdmnmi2fo,Nick_Dissertation_EX2_EP,1,88,2022-02-01T15:10:47+00:00,2.0189628601074,8,Mixed_Stim.csv,FREQVersionB.csv,"Freq Mixed B","Freq Mixed B",SHOELACE,TIE,Study2,F,99,81,Test,User,-,,Recall,Recall1,81,No,,,,,1847,tie,100,1014,1148,1,1,,,,,,1,
w10079472,eqdmnmi2fo,Nick_Dissertation_EX2_EP,1,89,2022-02-01T15:10:49+00:00,2.4003810882568,8,Mixed_Stim.csv,FREQVersionB.csv,"Freq Mixed B","Freq Mixed B",FUZZY,BANG,Study2,U,168,59,Test,User,-,,Recall,Recall1,59,No,,,,,2235,bang,100,987,1340,1,1,,,,,,1,
w10079472,eqdmnmi2fo,Nick_Dissertation_EX2_EP,1,90,2022-02-01T15:10:52+00:00,2.9104290008545,8,Mixed_Stim.csv,FREQVersionB.csv,"Freq Mixed B","Freq Mixed B",FEUD,FIGHT,Study2,F,113,67,Test,User,-,,Recall,Recall1,67,No,,,,,2766,fight,100,1192,1789,1,1,,,,,,1,
w10079472,eqdmnmi2fo,Nick_Dissertation_EX2_EP,1,91,2022-02-01T15:10:54+00:00,2.0585250854492,8,Mixed_Stim.csv,FREQVersionB.csv,"Freq Mixed B","Freq Mixed B",CHERRY,RED,Study2,F,104,61,Test,User,-,,Recall,Recall1,61,No,,,,,1893,red,100,878,1202,1,1,,,,,,1,
w10079472,eqdmnmi2fo,Nick_Dissertation_EX2_EP,1,92,2022-02-01T15:11:01+00:00,7.3904428482056,8,Mixed_Stim.csv,FREQVersionB.csv,"Freq Mixed B","Freq Mixed B",CRACKLE,ABLE,Study2,U,162,88,Test,User,-,,Recall,Recall1,88,No,,,,,7182,drop,0,5733,6289,0,0,,,,,,1,
w10079472,eqdmnmi2fo,Nick_Dissertation_EX2_EP,1,93,2022-02-01T15:11:04+00:00,2.3569059371948,8,Mixed_Stim.csv,FREQVersionB.csv,"Freq Mixed B","Freq Mixed B",DOCUMENT,PAPER,Study2,F,109,75,Test,User,-,,Recall,Recall1,75,No,,,,,2196,paper,100,1022,1417,1,1,,,,,,1,
w10079472,eqdmnmi2fo,Nick_Dissertation_EX2_EP,1,94,2022-02-01T15:11:06+00:00,2.4617040157318,8,Mixed_Stim.csv,FREQVersionB.csv,"Freq Mixed B","Freq Mixed B",FURRY,DOG,Study2,F,102,91,Test,User,-,,Recall,Recall1,91,No,,,,,2313,dog,100,1274,1501,1,1,,,,,,1,
w10079472,eqdmnmi2fo,Nick_Dissertation_EX2_EP,1,95,2022-02-01T15:11:08+00:00,2.2073791027069,8,Mixed_Stim.csv,FREQVersionB.csv,"Freq Mixed B","Freq Mixed B",ADJOURN,END,Study2,F,101,93,Test,User,-,,Recall,Recall1,93,No,,,,,2044,end,100,1068,1292,1,1,,,,,,1,
w10079472,eqdmnmi2fo,Nick_Dissertation_EX2_EP,1,96,2022-02-01T15:11:12+00:00,3.9015760421753,8,Mixed_Stim.csv,FREQVersionB.csv,"Freq Mixed B","Freq Mixed B",TEMPERATURE,Morning,Study2,U,173,63,Test,User,-,,Recall,Recall1,63,No,,,,,3757,mornings,93.333333333333,1395,3489,0,1,,,,,,1,
w10079472,eqdmnmi2fo,Nick_Dissertation_EX2_EP,1,97,2022-02-01T15:11:15+00:00,2.6775109767914,8,Mixed_Stim.csv,FREQVersionB.csv,"Freq Mixed B","Freq Mixed B",CACTUS,PLANT,Study2,F,98,70,Test,User,-,,Recall,Recall1,70,No,,,,,2393,plant,100,1072,1554,1,1,,,,,,1,
w10079472,eqdmnmi2fo,Nick_Dissertation_EX2_EP,1,98,2022-02-01T15:11:26+00:00,11.185281038284,8,Mixed_Stim.csv,FREQVersionB.csv,"Freq Mixed B","Freq Mixed B",CAKE,CLOTHES,Study2,U,166,85,Test,User,-,,Recall,Recall1,85,No,,,,,10967,butter,30.769230769231,9654,10329,0,0,,,,,,1,
w10079472,eqdmnmi2fo,Nick_Dissertation_EX2_EP,1,99,2022-02-01T15:11:37+00:00,11.178446054459,8,Mixed_Stim.csv,FREQVersionB.csv,"Freq Mixed B","Freq Mixed B",,,,,,0,Instruct,-,10,"You will now be presented with a new set of word pairs. Please study each pair. Remember that your memory will be tested! When finished, press Enter to move to the next pair.",Initial_Instruct,Instruct4,,No,,,,,10949,,,-1,-1,,,,,,,,1,
w10079472,eqdmnmi2fo,Nick_Dissertation_EX2_EP,1,100,2022-02-01T15:11:49+00:00,11.569916963577,8,Mixed_Stim.csv,FREQVersionB.csv,"Freq Mixed B","Freq Mixed B",,,,,,0,Instruct,,10,"You will again be asked to rate how often the paired items are used together, using a 0 to 100 scale. Remember to use the full range of the scale!",,Instruct10,,No,,,,,11343,,,-1,-1,,,,,,,,1,
w10079472,eqdmnmi2fo,Nick_Dissertation_EX2_EP,1,101,2022-02-01T15:11:53+00:00,4.2970128059387,8,Mixed_Stim.csv,FREQVersionB.csv,"Freq Mixed B","Freq Mixed B",,,,,,0,Instruct,User,-,"Each word will be displayed on the computer screen for 4 seconds. You will then have 4 seconds to make your rating. The screen will automatically move to the next pair when time is up. Press Enter when you are ready to begin.",,Instruct11,,No,,,,,4078,,,-1,-1,,,,,,,,1,
w10079472,eqdmnmi2fo,Nick_Dissertation_EX2_EP,1,102,2022-02-01T15:12:03+00:00,9.5506131649017,8,Mixed_Stim.csv,FREQVersionB.csv,"Freq Mixed B","Freq Mixed B",TREES,GREEN,BUFFER1,Buffer,1,3,Study,4,4,,Study/JOL,BUFFER3,3,FREQ,5,5,BUFFER3,"How often are these two words used together?|Type your response on a scale from 0-100 and then press Enter.",4002,,,-1,-1,,,,99,5006,361,1052,1,1
w10079472,eqdmnmi2fo,Nick_Dissertation_EX2_EP,1,103,2022-02-01T15:12:12+00:00,9.7149770259857,8,Mixed_Stim.csv,FREQVersionB.csv,"Freq Mixed B","Freq Mixed B",SCARE,HIDE,BUFFER1,Buffer,4,2,Study,4,4,,Study/JOL,BUFFER3,2,FREQ,5,5,BUFFER3,"How often are these two words used together?|Type your response on a scale from 0-100 and then press Enter.",4002,,,-1,-1,,,,100,5007,316,843,1,1
w10079472,eqdmnmi2fo,Nick_Dissertation_EX2_EP,1,104,2022-02-01T15:12:22+00:00,9.5024499893188,8,Mixed_Stim.csv,FREQVersionB.csv,"Freq Mixed B","Freq Mixed B",BASEBALL,CATCHER,BUFFER1,Buffer,2,5,Study,4,4,,Study/JOL,BUFFER3,5,FREQ,5,5,BUFFER3,"How often are these two words used together?|Type your response on a scale from 0-100 and then press Enter.",4002,,,-1,-1,,,,98,5006,472,631,1,1
w10079472,eqdmnmi2fo,Nick_Dissertation_EX2_EP,1,105,2022-02-01T15:12:31+00:00,9.4497020244598,8,Mixed_Stim.csv,FREQVersionB.csv,"Freq Mixed B","Freq Mixed B",PEANUT,BUTTER,BUFFER1,Buffer,3,4,Study,4,4,,Study/JOL,BUFFER3,4,FREQ,5,5,BUFFER3,"How often are these two words used together?|Type your response on a scale from 0-100 and then press Enter.",4002,,,-1,-1,,,,100,5006,351,583,1,1
w10079472,eqdmnmi2fo,Nick_Dissertation_EX2_EP,1,106,2022-02-01T15:12:41+00:00,9.4462139606476,8,Mixed_Stim.csv,FREQVersionB.csv,"Freq Mixed B","Freq Mixed B",SPACE,JAM,BUFFER1,Buffer,5,6,Study,4,4,,Study/JOL,BUFFER3,6,FREQ,5,5,BUFFER3,"How often are these two words used together?|Type your response on a scale from 0-100 and then press Enter.",4002,,,-1,-1,,,,100,5006,392,1052,1,1
w10079472,eqdmnmi2fo,Nick_Dissertation_EX2_EP,1,107,2022-02-01T15:12:50+00:00,9.4239120483398,8,Mixed_Stim.csv,FREQVersionB.csv,"Freq Mixed B","Freq Mixed B",CASH,WOULD,Study1,U,83,39,Study,4,4,,Study/JOL,"Study Phase2",39,FREQ,5,5,"Study Phase2","How often are these two words used together?|Type your response on a scale from 0-100 and then press Enter.",4003,,,-1,-1,,,,57,5006,1684,1901,1,1
w10079472,eqdmnmi2fo,Nick_Dissertation_EX2_EP,1,108,2022-02-01T15:13:00+00:00,9.42795586586,8,Mixed_Stim.csv,FREQVersionB.csv,"Freq Mixed B","Freq Mixed B",HYGIENE,CLEAN,Study1,F,17,41,Study,4,4,,Study/JOL,"Study Phase2",41,FREQ,5,5,"Study Phase2","How often are these two words used together?|Type your response on a scale from 0-100 and then press Enter.",4001,,,-1,-1,,,,100,5006,545,1027,1,1
w10079472,eqdmnmi2fo,Nick_Dissertation_EX2_EP,1,109,2022-02-01T15:13:09+00:00,9.4724249839783,8,Mixed_Stim.csv,FREQVersionB.csv,"Freq Mixed B","Freq Mixed B",ROOT,PLANT,Study1,F,13,30,Study,4,4,,Study/JOL,"Study Phase2",30,FREQ,5,5,"Study Phase2","How often are these two words used together?|Type your response on a scale from 0-100 and then press Enter.",4002,,,-1,-1,,,,96,5006,417,440,1,1
w10079472,eqdmnmi2fo,Nick_Dissertation_EX2_EP,1,110,2022-02-01T15:13:19+00:00,9.4469611644745,8,Mixed_Stim.csv,FREQVersionB.csv,"Freq Mixed B","Freq Mixed B",HIDE,SICK,Study1,U,84,22,Study,4,4,,Study/JOL,"Study Phase2",22,FREQ,5,5,"Study Phase2","How often are these two words used together?|Type your response on a scale from 0-100 and then press Enter.",4002,,,-1,-1,,,,47,5006,632,648,1,1
w10079472,eqdmnmi2fo,Nick_Dissertation_EX2_EP,1,111,2022-02-01T15:13:28+00:00,9.4476568698883,8,Mixed_Stim.csv,FREQVersionB.csv,"Freq Mixed B","Freq Mixed B",PAW,DOG,Study1,F,15,14,Study,4,4,,Study/JOL,"Study Phase2",14,FREQ,5,5,"Study Phase2","How often are these two words used together?|Type your response on a scale from 0-100 and then press Enter.",4000,,,-1,-1,,,,100,5006,497,1040,1,1
w10079472,eqdmnmi2fo,Nick_Dissertation_EX2_EP,1,112,2022-02-01T15:13:37+00:00,9.4212319850922,8,Mixed_Stim.csv,FREQVersionB.csv,"Freq Mixed B","Freq Mixed B",DISCUSSION,TALK,Study1,F,21,21,Study,4,4,,Study/JOL,"Study Phase2",21,FREQ,5,5,"Study Phase2","How often are these two words used together?|Type your response on a scale from 0-100 and then press Enter.",4002,,,-1,-1,,,,94,5006,313,327,1,1
w10079472,eqdmnmi2fo,Nick_Dissertation_EX2_EP,1,113,2022-02-01T15:13:47+00:00,9.7446460723877,8,Mixed_Stim.csv,FREQVersionB.csv,"Freq Mixed B","Freq Mixed B",HERD,COW,Study1,F,22,18,Study,4,4,,Study/JOL,"Study Phase2",18,FREQ,5,5,"Study Phase2","How often are these two words used together?|Type your response on a scale from 0-100 and then press Enter.",4001,,,-1,-1,,,,91,5005,890,920,1,1
w10079472,eqdmnmi2fo,Nick_Dissertation_EX2_EP,1,114,2022-02-01T15:13:57+00:00,9.4706358909607,8,Mixed_Stim.csv,FREQVersionB.csv,"Freq Mixed B","Freq Mixed B",WAY,OUT,Study1,F,16,23,Study,4,4,,Study/JOL,"Study Phase2",23,FREQ,5,5,"Study Phase2","How often are these two words used together?|Type your response on a scale from 0-100 and then press Enter.",4001,,,-1,-1,,,,98,5005,951,1168,1,1
w10079472,eqdmnmi2fo,Nick_Dissertation_EX2_EP,1,115,2022-02-01T15:14:06+00:00,9.5285270214081,8,Mixed_Stim.csv,FREQVersionB.csv,"Freq Mixed B","Freq Mixed B",REVOLUTION,WAR,Study1,F,20,44,Study,4,4,,Study/JOL,"Study Phase2",44,FREQ,5,5,"Study Phase2","How often are these two words used together?|Type your response on a scale from 0-100 and then press Enter.",4002,,,-1,-1,,,,74,5007,2423,2492,1,1
w10079472,eqdmnmi2fo,Nick_Dissertation_EX2_EP,1,116,2022-02-01T15:14:16+00:00,9.4203870296478,8,Mixed_Stim.csv,FREQVersionB.csv,"Freq Mixed B","Freq Mixed B",GEOLOGY,ROCK,Study1,F,19,31,Study,4,4,,Study/JOL,"Study Phase2",31,FREQ,5,5,"Study Phase2","How often are these two words used together?|Type your response on a scale from 0-100 and then press Enter.",4001,,,-1,-1,,,,99,5006,304,463,1,1
w10079472,eqdmnmi2fo,Nick_Dissertation_EX2_EP,1,117,2022-02-01T15:14:25+00:00,9.450376033783,8,Mixed_Stim.csv,FREQVersionB.csv,"Freq Mixed B","Freq Mixed B",CREDIT,CARD,Study1,F,23,40,Study,4,4,,Study/JOL,"Study Phase2",40,FREQ,5,5,"Study Phase2","How often are these two words used together?|Type your response on a scale from 0-100 and then press Enter.",4002,,,-1,-1,,,,100,5005,434,786,1,1
w10079472,eqdmnmi2fo,Nick_Dissertation_EX2_EP,1,118,2022-02-01T15:14:35+00:00,9.5327589511871,8,Mixed_Stim.csv,FREQVersionB.csv,"Freq Mixed B","Freq Mixed B",HORNET,STING,Study1,F,11,20,Study,4,4,,Study/JOL,"Study Phase2",20,FREQ,5,5,"Study Phase2","How often are these two words used together?|Type your response on a scale from 0-100 and then press Enter.",4000,,,-1,-1,,,,84,5007,1231,1853,1,1
w10079472,eqdmnmi2fo,Nick_Dissertation_EX2_EP,1,119,2022-02-01T15:14:44+00:00,9.4277651309967,8,Mixed_Stim.csv,FREQVersionB.csv,"Freq Mixed B","Freq Mixed B",VALLEY,ADD,Study1,U,82,34,Study,4,4,,Study/JOL,"Study Phase2",34,FREQ,5,5,"Study Phase2","How often are these two words used together?|Type your response on a scale from 0-100 and then press Enter.",4002,,,-1,-1,,,,0,5007,1320,1320,1,1
w10079472,eqdmnmi2fo,Nick_Dissertation_EX2_EP,1,120,2022-02-01T15:14:54+00:00,9.7076809406281,8,Mixed_Stim.csv,FREQVersionB.csv,"Freq Mixed B","Freq Mixed B",ART,LION,Study1,U,79,25,Study,4,4,,Study/JOL,"Study Phase2",25,FREQ,5,5,"Study Phase2","How often are these two words used together?|Type your response on a scale from 0-100 and then press Enter.",4002,,,-1,-1,,,,4,5006,516,517,1,1
w10079472,eqdmnmi2fo,Nick_Dissertation_EX2_EP,1,121,2022-02-01T15:15:03+00:00,9.4694199562073,8,Mixed_Stim.csv,FREQVersionB.csv,"Freq Mixed B","Freq Mixed B",MACHINE,POSITION,Study1,U,76,9,Study,4,4,,Study/JOL,"Study Phase2",9,FREQ,5,5,"Study Phase2","How often are these two words used together?|Type your response on a scale from 0-100 and then press Enter.",4002,,,-1,-1,,,,16,5007,2432,2647,1,1
w10079472,eqdmnmi2fo,Nick_Dissertation_EX2_EP,1,122,2022-02-01T15:15:13+00:00,9.4684550762177,8,Mixed_Stim.csv,FREQVersionB.csv,"Freq Mixed B","Freq Mixed B",DEATH,BUSINESS,Study1,U,72,33,Study,4,4,,Study/JOL,"Study Phase2",33,FREQ,5,5,"Study Phase2","How often are these two words used together?|Type your response on a scale from 0-100 and then press Enter.",4002,,,-1,-1,,,,27,5007,2257,2372,1,1
w10079472,eqdmnmi2fo,Nick_Dissertation_EX2_EP,1,123,2022-02-01T15:15:22+00:00,9.4300129413605,8,Mixed_Stim.csv,FREQVersionB.csv,"Freq Mixed B","Freq Mixed B",LIFT,WOMAN,Study1,U,69,43,Study,4,4,,Study/JOL,"Study Phase2",43,FREQ,5,5,"Study Phase2","How often are these two words used together?|Type your response on a scale from 0-100 and then press Enter.",4002,,,-1,-1,,,,35,5007,3128,3320,1,1
w10079472,eqdmnmi2fo,Nick_Dissertation_EX2_EP,1,124,2022-02-01T15:15:32+00:00,9.4685759544373,8,Mixed_Stim.csv,FREQVersionB.csv,"Freq Mixed B","Freq Mixed B",DELINQUENT,BAD,Study1,F,6,13,Study,4,4,,Study/JOL,"Study Phase2",13,FREQ,5,5,"Study Phase2","How often are these two words used together?|Type your response on a scale from 0-100 and then press Enter.",4000,,,-1,-1,,,,100,5012,549,1036,1,1
w10079472,eqdmnmi2fo,Nick_Dissertation_EX2_EP,1,125,2022-02-01T15:15:41+00:00,9.4403829574585,8,Mixed_Stim.csv,FREQVersionB.csv,"Freq Mixed B","Freq Mixed B",CHISEL,HAMMER,Study1,F,9,38,Study,4,4,,Study/JOL,"Study Phase2",38,FREQ,5,5,"Study Phase2","How often are these two words used together?|Type your response on a scale from 0-100 and then press Enter.",4002,,,-1,-1,,,,100,5005,1197,1711,1,1
w10079472,eqdmnmi2fo,Nick_Dissertation_EX2_EP,1,126,2022-02-01T15:15:50+00:00,9.446357011795,8,Mixed_Stim.csv,FREQVersionB.csv,"Freq Mixed B","Freq Mixed B",EDITOR,NEWS,Study1,F,10,7,Study,4,4,,Study/JOL,"Study Phase2",7,FREQ,5,5,"Study Phase2","How often are these two words used together?|Type your response on a scale from 0-100 and then press Enter.",4002,,,-1,-1,,,,97,5007,2306,2621,1,1
w10079472,eqdmnmi2fo,Nick_Dissertation_EX2_EP,1,127,2022-02-01T15:16:00+00:00,9.4181971549988,8,Mixed_Stim.csv,FREQVersionB.csv,"Freq Mixed B","Freq Mixed B",DEBATE,SIGHT,Study1,U,73,19,Study,4,4,,Study/JOL,"Study Phase2",19,FREQ,5,5,"Study Phase2","How often are these two words used together?|Type your response on a scale from 0-100 and then press Enter.",4001,,,-1,-1,,,,23,5006,2334,2657,1,1
w10079472,eqdmnmi2fo,Nick_Dissertation_EX2_EP,1,128,2022-02-01T15:16:10+00:00,9.6377389431,8,Mixed_Stim.csv,FREQVersionB.csv,"Freq Mixed B","Freq Mixed B",HAPPY,CAR,Study1,U,77,15,Study,4,4,,Study/JOL,"Study Phase2",15,FREQ,5,5,"Study Phase2","How often are these two words used together?|Type your response on a scale from 0-100 and then press Enter.",4002,,,-1,-1,,,,1,5005,1947,1948,1,1
w10079472,eqdmnmi2fo,Nick_Dissertation_EX2_EP,1,129,2022-02-01T15:16:19+00:00,9.4980289936066,8,Mixed_Stim.csv,FREQVersionB.csv,"Freq Mixed B","Freq Mixed B",PARK,HUNGRY,Study1,U,68,26,Study,4,4,,Study/JOL,"Study Phase2",26,FREQ,5,5,"Study Phase2","How often are these two words used together?|Type your response on a scale from 0-100 and then press Enter.",4001,,,-1,-1,,,,14,5007,2876,2999,1,1
w10079472,eqdmnmi2fo,Nick_Dissertation_EX2_EP,1,130,2022-02-01T15:16:28+00:00,9.4226489067078,8,Mixed_Stim.csv,FREQVersionB.csv,"Freq Mixed B","Freq Mixed B",SUGAR,RIDDLE,Study1,U,81,37,Study,4,4,,Study/JOL,"Study Phase2",37,FREQ,5,5,"Study Phase2","How often are these two words used together?|Type your response on a scale from 0-100 and then press Enter.",4002,,,-1,-1,,,,21,5006,3092,3355,1,1
w10079472,eqdmnmi2fo,Nick_Dissertation_EX2_EP,1,131,2022-02-01T15:16:38+00:00,9.4424760341644,8,Mixed_Stim.csv,FREQVersionB.csv,"Freq Mixed B","Freq Mixed B",STRONG,ACCIDENT,Study1,U,80,16,Study,4,4,,Study/JOL,"Study Phase2",16,FREQ,5,5,"Study Phase2","How often are these two words used together?|Type your response on a scale from 0-100 and then press Enter.",4002,,,-1,-1,,,,85,5005,1371,1457,1,1
w10079472,eqdmnmi2fo,Nick_Dissertation_EX2_EP,1,132,2022-02-01T15:16:47+00:00,9.4268329143524,8,Mixed_Stim.csv,FREQVersionB.csv,"Freq Mixed B","Freq Mixed B",SOON,BELT,Study1,U,70,45,Study,4,4,,Study/JOL,"Study Phase2",45,FREQ,5,5,"Study Phase2","How often are these two words used together?|Type your response on a scale from 0-100 and then press Enter.",4002,,,-1,-1,,,,14,5006,605,779,1,1
w10079472,eqdmnmi2fo,Nick_Dissertation_EX2_EP,1,133,2022-02-01T15:16:57+00:00,9.4303030967712,8,Mixed_Stim.csv,FREQVersionB.csv,"Freq Mixed B","Freq Mixed B",SWAN,BIRD,Study1,F,14,32,Study,4,4,,Study/JOL,"Study Phase2",32,FREQ,5,5,"Study Phase2","How often are these two words used together?|Type your response on a scale from 0-100 and then press Enter.",4002,,,-1,-1,,,,100,5007,420,1089,1,1
w10079472,eqdmnmi2fo,Nick_Dissertation_EX2_EP,1,134,2022-02-01T15:17:06+00:00,9.4147369861603,8,Mixed_Stim.csv,FREQVersionB.csv,"Freq Mixed B","Freq Mixed B",WAGE,MONEY,Study1,F,8,10,Study,4,4,,Study/JOL,"Study Phase2",10,FREQ,5,5,"Study Phase2","How often are these two words used together?|Type your response on a scale from 0-100 and then press Enter.",4002,,,-1,-1,,,,100,5006,422,1160,1,1
w10079472,eqdmnmi2fo,Nick_Dissertation_EX2_EP,1,135,2022-02-01T15:17:16+00:00,9.4347159862518,8,Mixed_Stim.csv,FREQVersionB.csv,"Freq Mixed B","Freq Mixed B",BITTER,COLD,Study1,F,12,36,Study,4,4,,Study/JOL,"Study Phase2",36,FREQ,5,5,"Study Phase2","How often are these two words used together?|Type your response on a scale from 0-100 and then press Enter.",4002,,,-1,-1,,,,100,5006,570,1205,1,1
w10079472,eqdmnmi2fo,Nick_Dissertation_EX2_EP,1,136,2022-02-01T15:17:25+00:00,9.6863939762115,8,Mixed_Stim.csv,FREQVersionB.csv,"Freq Mixed B","Freq Mixed B",DIGESTION,STOMACH,Study1,F,7,24,Study,4,4,,Study/JOL,"Study Phase2",24,FREQ,5,5,"Study Phase2","How often are these two words used together?|Type your response on a scale from 0-100 and then press Enter.",4003,,,-1,-1,,,,97,5005,383,569,1,1
w10079472,eqdmnmi2fo,Nick_Dissertation_EX2_EP,1,137,2022-02-01T15:17:35+00:00,9.4601621627808,8,Mixed_Stim.csv,FREQVersionB.csv,"Freq Mixed B","Freq Mixed B",DISCOVER,FLOOR,Study1,U,71,46,Study,4,4,,Study/JOL,"Study Phase2",46,FREQ,5,5,"Study Phase2","How often are these two words used together?|Type your response on a scale from 0-100 and then press Enter.",4000,,,-1,-1,,,,15,5006,1593,1921,1,1
w10079472,eqdmnmi2fo,Nick_Dissertation_EX2_EP,1,138,2022-02-01T15:17:44+00:00,9.5937588214874,8,Mixed_Stim.csv,FREQVersionB.csv,"Freq Mixed B","Freq Mixed B",KING,VASE,Study1,U,85,11,Study,4,4,,Study/JOL,"Study Phase2",11,FREQ,5,5,"Study Phase2","How often are these two words used together?|Type your response on a scale from 0-100 and then press Enter.",4002,,,-1,-1,,,,0,5005,1604,1604,1,1
w10079472,eqdmnmi2fo,Nick_Dissertation_EX2_EP,1,139,2022-02-01T15:17:54+00:00,9.5227110385895,8,Mixed_Stim.csv,FREQVersionB.csv,"Freq Mixed B","Freq Mixed B",BRIDGE,WATER,Study1,F,18,29,Study,4,4,,Study/JOL,"Study Phase2",29,FREQ,5,5,"Study Phase2","How often are these two words used together?|Type your response on a scale from 0-100 and then press Enter.",4002,,,-1,-1,,,,97,5006,424,616,1,1
w10079472,eqdmnmi2fo,Nick_Dissertation_EX2_EP,1,140,2022-02-01T15:18:04+00:00,10.282741069794,8,Mixed_Stim.csv,FREQVersionB.csv,"Freq Mixed B","Freq Mixed B",TUNA,FISH,Study1,F,25,27,Study,4,4,,Study/JOL,"Study Phase2",27,FREQ,5,5,"Study Phase2","How often are these two words used together?|Type your response on a scale from 0-100 and then press Enter.",4000,,,-1,-1,,,,100,5005,331,919,1,1
w10079472,eqdmnmi2fo,Nick_Dissertation_EX2_EP,1,141,2022-02-01T15:18:14+00:00,9.4383718967438,8,Mixed_Stim.csv,FREQVersionB.csv,"Freq Mixed B","Freq Mixed B",PUSHER,CLUTTER,Study1,U,66,17,Study,4,4,,Study/JOL,"Study Phase2",17,FREQ,5,5,"Study Phase2","How often are these two words used together?|Type your response on a scale from 0-100 and then press Enter.",4002,,,-1,-1,,,,13,5005,1726,1840,1,1
w10079472,eqdmnmi2fo,Nick_Dissertation_EX2_EP,1,142,2022-02-01T15:18:23+00:00,9.4735591411591,8,Mixed_Stim.csv,FREQVersionB.csv,"Freq Mixed B","Freq Mixed B",ALLOW,TUCK,Study1,U,78,8,Study,4,4,,Study/JOL,"Study Phase2",8,FREQ,5,5,"Study Phase2","How often are these two words used together?|Type your response on a scale from 0-100 and then press Enter.",4000,,,-1,-1,,,,7,5013,950,950,1,1
w10079472,eqdmnmi2fo,Nick_Dissertation_EX2_EP,1,143,2022-02-01T15:18:32+00:00,9.4377930164337,8,Mixed_Stim.csv,FREQVersionB.csv,"Freq Mixed B","Freq Mixed B",ORCHID,FLOWER,Study1,F,24,35,Study,4,4,,Study/JOL,"Study Phase2",35,FREQ,5,5,"Study Phase2","How often are these two words used together?|Type your response on a scale from 0-100 and then press Enter.",4002,,,-1,-1,,,,79,5006,1235,1342,1,1
w10079472,eqdmnmi2fo,Nick_Dissertation_EX2_EP,1,144,2022-02-01T15:18:42+00:00,9.4419050216675,8,Mixed_Stim.csv,FREQVersionB.csv,"Freq Mixed B","Freq Mixed B",ARTERY,BRONZE,Study1,U,74,42,Study,4,4,,Study/JOL,"Study Phase2",42,FREQ,5,5,"Study Phase2","How often are these two words used together?|Type your response on a scale from 0-100 and then press Enter.",4002,,,-1,-1,,,,0,5006,1219,1219,1,1
w10079472,eqdmnmi2fo,Nick_Dissertation_EX2_EP,1,145,2022-02-01T15:18:51+00:00,9.4492437839508,8,Mixed_Stim.csv,FREQVersionB.csv,"Freq Mixed B","Freq Mixed B",FIX,HAND,Study1,U,75,12,Study,4,4,,Study/JOL,"Study Phase2",12,FREQ,5,5,"Study Phase2","How often are these two words used together?|Type your response on a scale from 0-100 and then press Enter.",4002,,,-1,-1,,,,84,5005,2789,3177,1,1
w10079472,eqdmnmi2fo,Nick_Dissertation_EX2_EP,1,146,2022-02-01T15:19:01+00:00,9.5565371513367,8,Mixed_Stim.csv,FREQVersionB.csv,"Freq Mixed B","Freq Mixed B",DIETARY,SACKING,Study1,U,67,28,Study,4,4,,Study/JOL,"Study Phase2",28,FREQ,5,5,"Study Phase2","How often are these two words used together?|Type your response on a scale from 0-100 and then press Enter.",4002,,,-1,-1,,,,0,5005,1155,1155,1,1
w10079472,eqdmnmi2fo,Nick_Dissertation_EX2_EP,1,147,2022-02-01T15:19:10+00:00,9.4868049621582,8,Mixed_Stim.csv,FREQVersionB.csv,"Freq Mixed B","Freq Mixed B",MALT,CHOCOLATE,BUFFER2,Buffer,88,50,Study,4,4,,Study/JOL,BUFFER4,50,FREQ,5,5,BUFFER4,"How often are these two words used together?|Type your response on a scale from 0-100 and then press Enter.",4002,,,-1,-1,,,,48,5011,2368,2748,1,1
w10079472,eqdmnmi2fo,Nick_Dissertation_EX2_EP,1,148,2022-02-01T15:19:20+00:00,9.4273679256439,8,Mixed_Stim.csv,FREQVersionB.csv,"Freq Mixed B","Freq Mixed B",SHERRIF,POLICE,BUFFER2,Buffer,87,47,Study,4,4,,Study/JOL,BUFFER4,47,FREQ,5,5,BUFFER4,"How often are these two words used together?|Type your response on a scale from 0-100 and then press Enter.",4002,,,-1,-1,,,,99,5006,2637,2787,1,1
w10079472,eqdmnmi2fo,Nick_Dissertation_EX2_EP,1,149,2022-02-01T15:19:29+00:00,9.461727142334,8,Mixed_Stim.csv,FREQVersionB.csv,"Freq Mixed B","Freq Mixed B",MOON,SPACE,BUFFER2,Buffer,89,49,Study,4,4,,Study/JOL,BUFFER4,49,FREQ,5,5,BUFFER4,"How often are these two words used together?|Type your response on a scale from 0-100 and then press Enter.",4001,,,-1,-1,,,,100,5007,1766,2320,1,1
w10079472,eqdmnmi2fo,Nick_Dissertation_EX2_EP,1,150,2022-02-01T15:19:39+00:00,9.4220068454742,8,Mixed_Stim.csv,FREQVersionB.csv,"Freq Mixed B","Freq Mixed B",THING,STUFF,BUFFER2,Buffer,90,51,Study,4,4,,Study/JOL,BUFFER4,51,FREQ,5,5,BUFFER4,"How often are these two words used together?|Type your response on a scale from 0-100 and then press Enter.",4002,,,-1,-1,,,,96,5006,2130,2752,1,1
w10079472,eqdmnmi2fo,Nick_Dissertation_EX2_EP,1,151,2022-02-01T15:19:48+00:00,9.4439342021942,8,Mixed_Stim.csv,FREQVersionB.csv,"Freq Mixed B","Freq Mixed B",GEESE,GOOSE,BUFFER2,Buffer,86,48,Study,4,4,,Study/JOL,BUFFER4,48,FREQ,5,5,BUFFER4,"How often are these two words used together?|Type your response on a scale from 0-100 and then press Enter.",4002,,,-1,-1,,,,100,5006,716,1309,1,1
w10079472,eqdmnmi2fo,Nick_Dissertation_EX2_EP,1,152,2022-02-01T15:19:50+00:00,2.0937449932098,8,Mixed_Stim.csv,FREQVersionB.csv,"Freq Mixed B","Freq Mixed B",,,,,,0,Instruct,User,-,"You have completed this section. Please press Enter.",Filler_Instruction,Instruct5,0,No,,,,,1952,,,-1,-1,,,,,,,,1,
w10079472,eqdmnmi2fo,Nick_Dissertation_EX2_EP,1,153,2022-02-01T15:21:51+00:00,120.23691797256,8,Mixed_Stim.csv,FREQVersionB.csv,"Freq Mixed B","Freq Mixed B",,,,,,0,FreeRecall,120,120,"Please list the 50 US states in reverse alphabetical order (z - a). The task will automatically advance to the next screen after two minutes.",,Filler2,0,No,,,,,120002,"virginia, west virginia, Tennessee, pennsylvaines, Oklahoma, ",0,40303,115049,0,0,,,,,,1,
w10079472,eqdmnmi2fo,Nick_Dissertation_EX2_EP,1,154,2022-02-01T15:22:02+00:00,11.06685590744,8,Mixed_Stim.csv,FREQVersionB.csv,"Freq Mixed B","Freq Mixed B",,,,,,0,Instruct,-,10,"You will now be presented with the first word from each of the previously studied item pairs. Please type the missing word. If you do not know the word, you may guess or press Enter to skip forward to the next pair.",,Instruct6,0,No,,,,,10854,,,-1,-1,,,,,,,,1,
w10079472,eqdmnmi2fo,Nick_Dissertation_EX2_EP,1,155,2022-02-01T15:22:05+00:00,3.733197927475,8,Mixed_Stim.csv,FREQVersionB.csv,"Freq Mixed B","Freq Mixed B",BRIDGE,WATER,Study1,F,18,29,Test,User,-,,Recall,Recall2,29,No,,,,,3579,water,100,1399,2500,1,1,,,,,,1,
w10079472,eqdmnmi2fo,Nick_Dissertation_EX2_EP,1,156,2022-02-01T15:22:09+00:00,3.8129951953888,8,Mixed_Stim.csv,FREQVersionB.csv,"Freq Mixed B","Freq Mixed B",HIDE,SICK,Study1,U,84,22,Test,User,-,,Recall,Recall2,22,No,,,,,3664,scare,44.444444444444,1651,2453,0,0,,,,,,1,
w10079472,eqdmnmi2fo,Nick_Dissertation_EX2_EP,1,157,2022-02-01T15:22:12+00:00,3.0275449752808,8,Mixed_Stim.csv,FREQVersionB.csv,"Freq Mixed B","Freq Mixed B",HERD,COW,Study1,F,22,18,Test,User,-,,Recall,Recall2,18,No,,,,,2886,cow,100,1010,2200,1,1,,,,,,1,
w10079472,eqdmnmi2fo,Nick_Dissertation_EX2_EP,1,158,2022-02-01T15:22:18+00:00,6.058718919754,8,Mixed_Stim.csv,FREQVersionB.csv,"Freq Mixed B","Freq Mixed B",SOON,BELT,Study1,U,70,45,Test,User,-,,Recall,Recall2,45,No,,,,,5841,break,44.444444444444,4211,4988,0,0,,,,,,1,
w10079472,eqdmnmi2fo,Nick_Dissertation_EX2_EP,1,159,2022-02-01T15:22:20+00:00,2.2467908859253,8,Mixed_Stim.csv,FREQVersionB.csv,"Freq Mixed B","Freq Mixed B",BITTER,COLD,Study1,F,12,36,Test,User,-,,Recall,Recall2,36,No,,,,,2094,cold,100,1011,1315,1,1,,,,,,1,
w10079472,eqdmnmi2fo,Nick_Dissertation_EX2_EP,1,160,2022-02-01T15:22:24+00:00,3.532567024231,8,Mixed_Stim.csv,FREQVersionB.csv,"Freq Mixed B","Freq Mixed B",DIGESTION,STOMACH,Study1,F,7,24,Test,User,-,,Recall,Recall2,24,No,,,,,3392,stomach,100,1071,2712,1,1,,,,,,1,
w10079472,eqdmnmi2fo,Nick_Dissertation_EX2_EP,1,161,2022-02-01T15:22:30+00:00,5.7316470146179,8,Mixed_Stim.csv,FREQVersionB.csv,"Freq Mixed B","Freq Mixed B",ART,LION,Study1,U,79,25,Test,User,-,,Recall,Recall2,25,No,,,,,5487,lion,100,3743,4664,1,1,,,,,,1,
w10079472,eqdmnmi2fo,Nick_Dissertation_EX2_EP,1,162,2022-02-01T15:22:40+00:00,9.91761302948,8,Mixed_Stim.csv,FREQVersionB.csv,"Freq Mixed B","Freq Mixed B",STRONG,ACCIDENT,Study1,U,80,16,Test,User,-,,Recall,Recall2,16,No,,,,,9512,pusher,14.285714285714,7834,8655,0,0,,,,,,1,
w10079472,eqdmnmi2fo,Nick_Dissertation_EX2_EP,1,163,2022-02-01T15:22:42+00:00,2.3496961593628,8,Mixed_Stim.csv,FREQVersionB.csv,"Freq Mixed B","Freq Mixed B",TUNA,FISH,Study1,F,25,27,Test,User,-,,Recall,Recall2,27,No,,,,,2071,fish,100,924,1245,1,1,,,,,,1,
w10079472,eqdmnmi2fo,Nick_Dissertation_EX2_EP,1,164,2022-02-01T15:22:44+00:00,2.2679867744446,8,Mixed_Stim.csv,FREQVersionB.csv,"Freq Mixed B","Freq Mixed B",CREDIT,CARD,Study1,F,23,40,Test,User,-,,Recall,Recall2,40,No,,,,,2121,card,100,887,1363,1,1,,,,,,1,
w10079472,eqdmnmi2fo,Nick_Dissertation_EX2_EP,1,165,2022-02-01T15:22:47+00:00,2.9154942035675,8,Mixed_Stim.csv,FREQVersionB.csv,"Freq Mixed B","Freq Mixed B",PAW,DOG,Study1,F,15,14,Test,User,-,,Recall,Recall2,14,No,,,,,2771,dog,100,1164,1389,1,1,,,,,,1,
w10079472,eqdmnmi2fo,Nick_Dissertation_EX2_EP,1,166,2022-02-01T15:22:51+00:00,4.050164937973,8,Mixed_Stim.csv,FREQVersionB.csv,"Freq Mixed B","Freq Mixed B",MACHINE,POSITION,Study1,U,76,9,Test,User,-,,Recall,Recall2,9,No,,,,,3902,"position ",100,1013,2175,1,1,,,,,,1,
w10079472,eqdmnmi2fo,Nick_Dissertation_EX2_EP,1,167,2022-02-01T15:22:58+00:00,6.7683620452881,8,Mixed_Stim.csv,FREQVersionB.csv,"Freq Mixed B","Freq Mixed B",CASH,WOULD,Study1,U,83,39,Test,User,-,,Recall,Recall2,39,No,,,,,6500,out,50,5343,5628,0,0,,,,,,1,
w10079472,eqdmnmi2fo,Nick_Dissertation_EX2_EP,1,168,2022-02-01T15:23:00+00:00,2.3015558719635,8,Mixed_Stim.csv,FREQVersionB.csv,"Freq Mixed B","Freq Mixed B",GEOLOGY,ROCK,Study1,F,19,31,Test,User,-,,Recall,Recall2,31,No,,,,,2138,rock,100,1018,1412,1,1,,,,,,1,
w10079472,eqdmnmi2fo,Nick_Dissertation_EX2_EP,1,169,2022-02-01T15:23:04+00:00,3.2656791210175,8,Mixed_Stim.csv,FREQVersionB.csv,"Freq Mixed B","Freq Mixed B",HORNET,STING,Study1,F,11,20,Test,User,-,,Recall,Recall2,20,No,,,,,3012,sting,100,901,2300,1,1,,,,,,1,
w10079472,eqdmnmi2fo,Nick_Dissertation_EX2_EP,1,170,2022-02-01T15:23:06+00:00,2.6430790424347,8,Mixed_Stim.csv,FREQVersionB.csv,"Freq Mixed B","Freq Mixed B",DISCUSSION,TALK,Study1,F,21,21,Test,User,-,,Recall,Recall2,21,No,,,,,2497,talk,100,1200,1539,1,1,,,,,,1,
w10079472,eqdmnmi2fo,Nick_Dissertation_EX2_EP,1,171,2022-02-01T15:23:15+00:00,8.5242929458618,8,Mixed_Stim.csv,FREQVersionB.csv,"Freq Mixed B","Freq Mixed B",DEBATE,SIGHT,Study1,U,73,19,Test,User,-,,Recall,Recall2,19,No,,,,,8299,sing,66.666666666667,5847,6736,0,0,,,,,,1,
w10079472,eqdmnmi2fo,Nick_Dissertation_EX2_EP,1,172,2022-02-01T15:23:22+00:00,7.5464270114899,8,Mixed_Stim.csv,FREQVersionB.csv,"Freq Mixed B","Freq Mixed B",SUGAR,RIDDLE,Study1,U,81,37,Test,User,-,,Recall,Recall2,37,No,,,,,7314,spice,36.363636363636,6101,6559,0,0,,,,,,1,
w10079472,eqdmnmi2fo,Nick_Dissertation_EX2_EP,1,173,2022-02-01T15:23:25+00:00,3.1033029556274,8,Mixed_Stim.csv,FREQVersionB.csv,"Freq Mixed B","Freq Mixed B",LIFT,WOMAN,Study1,U,69,43,Test,User,-,,Recall,Recall2,43,No,,,,,2944,woman,100,1748,2153,1,1,,,,,,1,
w10079472,eqdmnmi2fo,Nick_Dissertation_EX2_EP,1,174,2022-02-01T15:23:29+00:00,3.9483449459076,8,Mixed_Stim.csv,FREQVersionB.csv,"Freq Mixed B","Freq Mixed B",ARTERY,BRONZE,Study1,U,74,42,Test,User,-,,Recall,Recall2,42,No,,,,,3789,bronze,100,1197,2422,1,1,,,,,,1,
w10079472,eqdmnmi2fo,Nick_Dissertation_EX2_EP,1,175,2022-02-01T15:23:32+00:00,2.1721229553223,8,Mixed_Stim.csv,FREQVersionB.csv,"Freq Mixed B","Freq Mixed B",EDITOR,NEWS,Study1,F,10,7,Test,User,-,,Recall,Recall2,7,No,,,,,2022,news,100,1071,1474,1,1,,,,,,1,
w10079472,eqdmnmi2fo,Nick_Dissertation_EX2_EP,1,176,2022-02-01T15:23:34+00:00,2.0772061347961,8,Mixed_Stim.csv,FREQVersionB.csv,"Freq Mixed B","Freq Mixed B",REVOLUTION,WAR,Study1,F,20,44,Test,User,-,,Recall,Recall2,44,No,,,,,1933,war,100,945,1258,1,1,,,,,,1,
w10079472,eqdmnmi2fo,Nick_Dissertation_EX2_EP,1,177,2022-02-01T15:23:38+00:00,4.8272519111633,8,Mixed_Stim.csv,FREQVersionB.csv,"Freq Mixed B","Freq Mixed B",DELINQUENT,BAD,Study1,F,6,13,Test,User,-,,Recall,Recall2,13,No,,,,,4609,bad,100,1122,3920,1,1,,,,,,1,
w10079472,eqdmnmi2fo,Nick_Dissertation_EX2_EP,1,178,2022-02-01T15:23:51+00:00,12.416845083237,8,Mixed_Stim.csv,FREQVersionB.csv,"Freq Mixed B","Freq Mixed B",DIETARY,SACKING,Study1,U,67,28,Test,User,-,,Recall,Recall2,28,No,,,,,12185,cut,20,10521,11538,0,0,,,,,,1,
w10079472,eqdmnmi2fo,Nick_Dissertation_EX2_EP,1,179,2022-02-01T15:23:54+00:00,3.1469459533691,8,Mixed_Stim.csv,FREQVersionB.csv,"Freq Mixed B","Freq Mixed B",DISCOVER,FLOOR,Study1,U,71,46,Test,User,-,,Recall,Recall2,46,No,,,,,2982,floor,100,1816,2269,1,1,,,,,,1,
w10079472,eqdmnmi2fo,Nick_Dissertation_EX2_EP,1,180,2022-02-01T15:23:57+00:00,2.6110370159149,8,Mixed_Stim.csv,FREQVersionB.csv,"Freq Mixed B","Freq Mixed B",SWAN,BIRD,Study1,F,14,32,Test,User,-,,Recall,Recall2,32,No,,,,,2469,bird,100,1165,1735,1,1,,,,,,1,
w10079472,eqdmnmi2fo,Nick_Dissertation_EX2_EP,1,181,2022-02-01T15:23:59+00:00,2.7200839519501,8,Mixed_Stim.csv,FREQVersionB.csv,"Freq Mixed B","Freq Mixed B",ORCHID,FLOWER,Study1,F,24,35,Test,User,-,,Recall,Recall2,35,No,,,,,2555,flower,100,1125,1816,1,1,,,,,,1,
w10079472,eqdmnmi2fo,Nick_Dissertation_EX2_EP,1,182,2022-02-01T15:24:02+00:00,2.3552420139313,8,Mixed_Stim.csv,FREQVersionB.csv,"Freq Mixed B","Freq Mixed B",CHISEL,HAMMER,Study1,F,9,38,Test,User,-,,Recall,Recall2,38,No,,,,,2191,hammer,100,1064,1519,1,1,,,,,,1,
w10079472,eqdmnmi2fo,Nick_Dissertation_EX2_EP,1,183,2022-02-01T15:24:04+00:00,2.4012870788574,8,Mixed_Stim.csv,FREQVersionB.csv,"Freq Mixed B","Freq Mixed B",ROOT,PLANT,Study1,F,13,30,Test,User,-,,Recall,Recall2,30,No,,,,,2250,plant,100,951,1412,1,1,,,,,,1,
w10079472,eqdmnmi2fo,Nick_Dissertation_EX2_EP,1,184,2022-02-01T15:24:07+00:00,2.8168120384216,8,Mixed_Stim.csv,FREQVersionB.csv,"Freq Mixed B","Freq Mixed B",FIX,HAND,Study1,U,75,12,Test,User,-,,Recall,Recall2,12,No,,,,,2672,hand,100,1577,1852,1,1,,,,,,1,
w10079472,eqdmnmi2fo,Nick_Dissertation_EX2_EP,1,185,2022-02-01T15:24:09+00:00,2.1699748039246,8,Mixed_Stim.csv,FREQVersionB.csv,"Freq Mixed B","Freq Mixed B",VALLEY,ADD,Study1,U,82,34,Test,User,-,,Recall,Recall2,34,No,,,,,2026,add,100,978,1264,1,1,,,,,,1,
w10079472,eqdmnmi2fo,Nick_Dissertation_EX2_EP,1,186,2022-02-01T15:24:12+00:00,2.9199891090393,8,Mixed_Stim.csv,FREQVersionB.csv,"Freq Mixed B","Freq Mixed B",KING,VASE,Study1,U,85,11,Test,User,-,,Recall,Recall2,11,No,,,,,2769,vase,100,1464,1995,1,1,,,,,,1,
w10079472,eqdmnmi2fo,Nick_Dissertation_EX2_EP,1,187,2022-02-01T15:24:19+00:00,6.9267320632935,8,Mixed_Stim.csv,FREQVersionB.csv,"Freq Mixed B","Freq Mixed B",ALLOW,TUCK,Study1,U,78,8,Test,User,-,,Recall,Recall2,8,No,,,,,6718,both,25,5611,5832,0,0,,,,,,1,
w10079472,eqdmnmi2fo,Nick_Dissertation_EX2_EP,1,188,2022-02-01T15:24:30+00:00,11.352669000626,8,Mixed_Stim.csv,FREQVersionB.csv,"Freq Mixed B","Freq Mixed B",DEATH,BUSINESS,Study1,U,72,33,Test,User,-,,Recall,Recall2,33,No,,,,,11117,"business ",100,965,10194,1,1,,,,,,1,
w10079472,eqdmnmi2fo,Nick_Dissertation_EX2_EP,1,189,2022-02-01T15:24:33+00:00,2.4579260349274,8,Mixed_Stim.csv,FREQVersionB.csv,"Freq Mixed B","Freq Mixed B",HYGIENE,CLEAN,Study1,F,17,41,Test,User,-,,Recall,Recall2,41,No,,,,,2278,clean,100,1033,1418,1,1,,,,,,1,
w10079472,eqdmnmi2fo,Nick_Dissertation_EX2_EP,1,190,2022-02-01T15:24:35+00:00,2.7934808731079,8,Mixed_Stim.csv,FREQVersionB.csv,"Freq Mixed B","Freq Mixed B",PUSHER,CLUTTER,Study1,U,66,17,Test,User,-,,Recall,Recall2,17,No,,,,,2647,clutter,100,1248,1890,1,1,,,,,,1,
w10079472,eqdmnmi2fo,Nick_Dissertation_EX2_EP,1,191,2022-02-01T15:24:39+00:00,3.2758820056915,8,Mixed_Stim.csv,FREQVersionB.csv,"Freq Mixed B","Freq Mixed B",WAGE,MONEY,Study1,F,8,10,Test,User,-,,Recall,Recall2,10,No,,,,,3124,money,100,1931,2539,1,1,,,,,,1,
w10079472,eqdmnmi2fo,Nick_Dissertation_EX2_EP,1,192,2022-02-01T15:24:41+00:00,2.433070898056,8,Mixed_Stim.csv,FREQVersionB.csv,"Freq Mixed B","Freq Mixed B",WAY,OUT,Study1,F,16,23,Test,User,-,,Recall,Recall2,23,No,,,,,2289,out,100,1184,1418,1,1,,,,,,1,
w10079472,eqdmnmi2fo,Nick_Dissertation_EX2_EP,1,193,2022-02-01T15:24:46+00:00,4.4109280109406,8,Mixed_Stim.csv,FREQVersionB.csv,"Freq Mixed B","Freq Mixed B",PARK,HUNGRY,Study1,U,68,26,Test,User,-,,Recall,Recall2,26,No,,,,,4210,hungry,100,1248,3313,1,1,,,,,,1,
w10079472,eqdmnmi2fo,Nick_Dissertation_EX2_EP,1,194,2022-02-01T15:24:48+00:00,2.2341661453247,8,Mixed_Stim.csv,FREQVersionB.csv,"Freq Mixed B","Freq Mixed B",HAPPY,CAR,Study1,U,77,15,Test,User,-,,Recall,Recall2,15,No,,,,,2095,car,100,1078,1346,1,1,,,,,,1,
w10079472,eqdmnmi2fo,Nick_Dissertation_EX2_EP,1,195,2022-02-01T15:24:49+00:00,1.301943063736,8,Mixed_Stim.csv,FREQVersionB.csv,"Freq Mixed B","Freq Mixed B",,,,,,0,Instruct,User,-,"You have completed this section. Please press Enter.",,Instruct7,,No,,,,,1167,,,-1,-1,,,,,,,,1,
w10079472,eqdmnmi2fo,Nick_Dissertation_EX2_EP,1,196,2022-02-01T15:24:51+00:00,1.4439117908478,8,Mixed_Stim.csv,FREQVersionB.csv,"Freq Mixed B","Freq Mixed B",,,,,,0,Instruct,User,-,"The following screen will ask you a few questions abour your experience today. You must complete these questions to receive credit.",,Instruct8,,No,,,,,1313,,,-1,-1,,,,,,,,1,
