Username,ID,ExperimentName,Session,Trial,Date,TimeDif,"Condition Number","Stimuli File","Order File","Condition Description","Condition Notes",Stimuli*Cue,Stimuli*Answer,Stimuli*Shuffle,"Stimuli*Stimuli Notes",Stimuli*Value,Procedure*Item,"Procedure*Trial Type","Procedure*Max Time","Procedure*Min Time",Procedure*Text,"Procedure*Procedure Notes",Procedure*Shuffle,Response*RT,Response*Response,Response*Accuracy,Response*RTfirst,Response*RTlast,Response*strictAcc,Response*lenientAcc,Response*focus,Response*Focus
w10107067,c5rue8tcx3,Nick_Dissertation_EX2_EP,1,1,2022-05-03T19:42:39+00:00,21.547488927841,5,Pure_Unrelated.csv,READVersionA.csv,"Read Pure U A","Read Pure U A",,,,,,0,Instruct,-,10,"Please study each of the following word pairs. Remember that your memory will be tested! Each pair will be displayed on the computer screen and will automatically advance to the next pair. Press ENTER when you are ready to begin.",Initial_Instruct,Instruct1,21452,,,-1,-1,,,,1
w10107067,c5rue8tcx3,Nick_Dissertation_EX2_EP,1,2,2022-05-03T19:42:47+00:00,8.1100959777832,5,Pure_Unrelated.csv,READVersionA.csv,"Read Pure U A","Read Pure U A",BASEBALL,CATCHER,BUFFER1,Buffer,2,4,STUDY,8,8,,Study/JOL,BUFFER,8002,,,-1,-1,,,,1
w10107067,c5rue8tcx3,Nick_Dissertation_EX2_EP,1,3,2022-05-03T19:42:55+00:00,8.125648021698,5,Pure_Unrelated.csv,READVersionA.csv,"Read Pure U A","Read Pure U A",TREES,GREEN,BUFFER1,Buffer,1,5,STUDY,8,8,,Study/JOL,BUFFER,8002,,,-1,-1,,,,1
w10107067,c5rue8tcx3,Nick_Dissertation_EX2_EP,1,4,2022-05-03T19:43:03+00:00,8.1046171188354,5,Pure_Unrelated.csv,READVersionA.csv,"Read Pure U A","Read Pure U A",SPACE,JAM,BUFFER1,Buffer,5,3,STUDY,8,8,,Study/JOL,BUFFER,8002,,,-1,-1,,,,1
w10107067,c5rue8tcx3,Nick_Dissertation_EX2_EP,1,5,2022-05-03T19:43:11+00:00,8.1186888217926,5,Pure_Unrelated.csv,READVersionA.csv,"Read Pure U A","Read Pure U A",SCARE,HIDE,BUFFER1,Buffer,4,6,STUDY,8,8,,Study/JOL,BUFFER,8003,,,-1,-1,,,,1
w10107067,c5rue8tcx3,Nick_Dissertation_EX2_EP,1,6,2022-05-03T19:43:19+00:00,8.1143519878387,5,Pure_Unrelated.csv,READVersionA.csv,"Read Pure U A","Read Pure U A",PEANUT,BUTTER,BUFFER1,Buffer,3,2,STUDY,8,8,,Study/JOL,BUFFER,8002,,,-1,-1,,,,1
w10107067,c5rue8tcx3,Nick_Dissertation_EX2_EP,1,7,2022-05-03T19:43:27+00:00,8.1068570613861,5,Pure_Unrelated.csv,READVersionA.csv,"Read Pure U A","Read Pure U A",STRETCH,CLOTH,Study1,U,7,28,STUDY,8,8,,Study/JOL,"Study Phase",8001,,,-1,-1,,,,1
w10107067,c5rue8tcx3,Nick_Dissertation_EX2_EP,1,8,2022-05-03T19:43:36+00:00,8.1086721420288,5,Pure_Unrelated.csv,READVersionA.csv,"Read Pure U A","Read Pure U A",DIFFICULT,POOR,Study1,U,81,30,STUDY,8,8,,Study/JOL,"Study Phase",8001,,,-1,-1,,,,1
w10107067,c5rue8tcx3,Nick_Dissertation_EX2_EP,1,9,2022-05-03T19:43:44+00:00,8.1075758934021,5,Pure_Unrelated.csv,READVersionA.csv,"Read Pure U A","Read Pure U A",RIPE,VERIFY,Study1,U,83,29,STUDY,8,8,,Study/JOL,"Study Phase",8002,,,-1,-1,,,,1
w10107067,c5rue8tcx3,Nick_Dissertation_EX2_EP,1,10,2022-05-03T19:43:52+00:00,8.1396770477295,5,Pure_Unrelated.csv,READVersionA.csv,"Read Pure U A","Read Pure U A",THICK,CONTEST,Study1,U,73,32,STUDY,8,8,,Study/JOL,"Study Phase",8001,,,-1,-1,,,,1
w10107067,c5rue8tcx3,Nick_Dissertation_EX2_EP,1,11,2022-05-03T19:44:00+00:00,8.1324100494385,5,Pure_Unrelated.csv,READVersionA.csv,"Read Pure U A","Read Pure U A",VEHICLE,CHARM,Study1,U,10,15,STUDY,8,8,,Study/JOL,"Study Phase",8002,,,-1,-1,,,,1
w10107067,c5rue8tcx3,Nick_Dissertation_EX2_EP,1,12,2022-05-03T19:44:08+00:00,8.1348819732666,5,Pure_Unrelated.csv,READVersionA.csv,"Read Pure U A","Read Pure U A",DEGREE,CHAIR,Study1,U,71,8,STUDY,8,8,,Study/JOL,"Study Phase",8002,,,-1,-1,,,,1
w10107067,c5rue8tcx3,Nick_Dissertation_EX2_EP,1,13,2022-05-03T19:44:16+00:00,8.1250009536743,5,Pure_Unrelated.csv,READVersionA.csv,"Read Pure U A","Read Pure U A",CAKE,CLOTHES,Study1,U,16,38,STUDY,8,8,,Study/JOL,"Study Phase",8002,,,-1,-1,,,,1
w10107067,c5rue8tcx3,Nick_Dissertation_EX2_EP,1,14,2022-05-03T19:44:24+00:00,8.1119799613953,5,Pure_Unrelated.csv,READVersionA.csv,"Read Pure U A","Read Pure U A",MOAT,CLEAR,Study1,U,19,37,STUDY,8,8,,Study/JOL,"Study Phase",8002,,,-1,-1,,,,1
w10107067,c5rue8tcx3,Nick_Dissertation_EX2_EP,1,15,2022-05-03T19:44:32+00:00,8.1163640022278,5,Pure_Unrelated.csv,READVersionA.csv,"Read Pure U A","Read Pure U A",BOTH,OUNCE,Study1,U,22,9,STUDY,8,8,,Study/JOL,"Study Phase",8003,,,-1,-1,,,,1
w10107067,c5rue8tcx3,Nick_Dissertation_EX2_EP,1,16,2022-05-03T19:44:41+00:00,8.1076200008392,5,Pure_Unrelated.csv,READVersionA.csv,"Read Pure U A","Read Pure U A",PET,MOON,Study1,U,74,7,STUDY,8,8,,Study/JOL,"Study Phase",8002,,,-1,-1,,,,1
w10107067,c5rue8tcx3,Nick_Dissertation_EX2_EP,1,17,2022-05-03T19:44:49+00:00,8.1070599555969,5,Pure_Unrelated.csv,READVersionA.csv,"Read Pure U A","Read Pure U A",LEASE,TOIL,Study1,U,20,41,STUDY,8,8,,Study/JOL,"Study Phase",8001,,,-1,-1,,,,1
w10107067,c5rue8tcx3,Nick_Dissertation_EX2_EP,1,18,2022-05-03T19:44:57+00:00,8.1233010292053,5,Pure_Unrelated.csv,READVersionA.csv,"Read Pure U A","Read Pure U A",RESIST,GLUE,Study1,U,69,35,STUDY,8,8,,Study/JOL,"Study Phase",8002,,,-1,-1,,,,1
w10107067,c5rue8tcx3,Nick_Dissertation_EX2_EP,1,19,2022-05-03T19:45:05+00:00,8.1123731136322,5,Pure_Unrelated.csv,READVersionA.csv,"Read Pure U A","Read Pure U A",MAIN,SCAR,Study1,U,25,26,STUDY,8,8,,Study/JOL,"Study Phase",8002,,,-1,-1,,,,1
w10107067,c5rue8tcx3,Nick_Dissertation_EX2_EP,1,20,2022-05-03T19:45:13+00:00,8.1236419677734,5,Pure_Unrelated.csv,READVersionA.csv,"Read Pure U A","Read Pure U A",BROAD,INFECT,Study1,U,75,33,STUDY,8,8,,Study/JOL,"Study Phase",8002,,,-1,-1,,,,1
w10107067,c5rue8tcx3,Nick_Dissertation_EX2_EP,1,21,2022-05-03T19:45:21+00:00,8.1112909317017,5,Pure_Unrelated.csv,READVersionA.csv,"Read Pure U A","Read Pure U A",FUTURE,SINCERE,Study1,U,70,17,STUDY,8,8,,Study/JOL,"Study Phase",8001,,,-1,-1,,,,1
w10107067,c5rue8tcx3,Nick_Dissertation_EX2_EP,1,22,2022-05-03T19:45:29+00:00,8.1165330410004,5,Pure_Unrelated.csv,READVersionA.csv,"Read Pure U A","Read Pure U A",JUSTICE,MAROON,Study1,U,6,23,STUDY,8,8,,Study/JOL,"Study Phase",8001,,,-1,-1,,,,1
w10107067,c5rue8tcx3,Nick_Dissertation_EX2_EP,1,23,2022-05-03T19:45:37+00:00,8.1191279888153,5,Pure_Unrelated.csv,READVersionA.csv,"Read Pure U A","Read Pure U A",TAX,OWL,Study1,U,72,10,STUDY,8,8,,Study/JOL,"Study Phase",8002,,,-1,-1,,,,1
w10107067,c5rue8tcx3,Nick_Dissertation_EX2_EP,1,24,2022-05-03T19:45:45+00:00,8.1125619411469,5,Pure_Unrelated.csv,READVersionA.csv,"Read Pure U A","Read Pure U A",CRACKLE,ABLE,Study1,U,12,40,STUDY,8,8,,Study/JOL,"Study Phase",8002,,,-1,-1,,,,1
w10107067,c5rue8tcx3,Nick_Dissertation_EX2_EP,1,25,2022-05-03T19:45:54+00:00,8.1150751113892,5,Pure_Unrelated.csv,READVersionA.csv,"Read Pure U A","Read Pure U A",BAT,SHAKY,Study1,U,66,20,STUDY,8,8,,Study/JOL,"Study Phase",8002,,,-1,-1,,,,1
w10107067,c5rue8tcx3,Nick_Dissertation_EX2_EP,1,26,2022-05-03T19:46:02+00:00,8.1170909404755,5,Pure_Unrelated.csv,READVersionA.csv,"Read Pure U A","Read Pure U A",INFLATE,DISGUST,Study1,U,76,39,STUDY,8,8,,Study/JOL,"Study Phase",8001,,,-1,-1,,,,1
w10107067,c5rue8tcx3,Nick_Dissertation_EX2_EP,1,27,2022-05-03T19:46:10+00:00,8.117800951004,5,Pure_Unrelated.csv,READVersionA.csv,"Read Pure U A","Read Pure U A",LOAN,SIGN,Study1,U,21,27,STUDY,8,8,,Study/JOL,"Study Phase",8002,,,-1,-1,,,,1
w10107067,c5rue8tcx3,Nick_Dissertation_EX2_EP,1,28,2022-05-03T19:46:18+00:00,8.1227879524231,5,Pure_Unrelated.csv,READVersionA.csv,"Read Pure U A","Read Pure U A",LISTEN,FICTION,Study1,U,14,13,STUDY,8,8,,Study/JOL,"Study Phase",8002,,,-1,-1,,,,1
w10107067,c5rue8tcx3,Nick_Dissertation_EX2_EP,1,29,2022-05-03T19:46:27+00:00,9.164281129837,5,Pure_Unrelated.csv,READVersionA.csv,"Read Pure U A","Read Pure U A",MEAT,OBTAIN,Study1,U,11,24,STUDY,8,8,,Study/JOL,"Study Phase",8001,,,-1,-1,,,,1
w10107067,c5rue8tcx3,Nick_Dissertation_EX2_EP,1,30,2022-05-03T19:46:35+00:00,8.1218740940094,5,Pure_Unrelated.csv,READVersionA.csv,"Read Pure U A","Read Pure U A",MAZE,ELECTION,Study1,U,9,44,STUDY,8,8,,Study/JOL,"Study Phase",8001,,,-1,-1,,,,1
w10107067,c5rue8tcx3,Nick_Dissertation_EX2_EP,1,31,2022-05-03T19:46:43+00:00,8.1339068412781,5,Pure_Unrelated.csv,READVersionA.csv,"Read Pure U A","Read Pure U A",DIZZY,SWEATER,Study1,U,77,21,STUDY,8,8,,Study/JOL,"Study Phase",8002,,,-1,-1,,,,1
w10107067,c5rue8tcx3,Nick_Dissertation_EX2_EP,1,32,2022-05-03T19:46:51+00:00,8.111839056015,5,Pure_Unrelated.csv,READVersionA.csv,"Read Pure U A","Read Pure U A",CRAYON,RATE,Study1,U,79,11,STUDY,8,8,,Study/JOL,"Study Phase",8002,,,-1,-1,,,,1
w10107067,c5rue8tcx3,Nick_Dissertation_EX2_EP,1,33,2022-05-03T19:47:00+00:00,8.1287240982056,5,Pure_Unrelated.csv,READVersionA.csv,"Read Pure U A","Read Pure U A",FUZZY,BANG,Study1,U,18,18,STUDY,8,8,,Study/JOL,"Study Phase",8002,,,-1,-1,,,,1
w10107067,c5rue8tcx3,Nick_Dissertation_EX2_EP,1,34,2022-05-03T19:47:08+00:00,8.4203729629517,5,Pure_Unrelated.csv,READVersionA.csv,"Read Pure U A","Read Pure U A",GIVE,STEAK,Study1,U,8,46,STUDY,8,8,,Study/JOL,"Study Phase",8003,,,-1,-1,,,,1
w10107067,c5rue8tcx3,Nick_Dissertation_EX2_EP,1,35,2022-05-03T19:47:16+00:00,8.1130509376526,5,Pure_Unrelated.csv,READVersionA.csv,"Read Pure U A","Read Pure U A",SHELL,SHAKE,Study1,U,13,12,STUDY,8,8,,Study/JOL,"Study Phase",8002,,,-1,-1,,,,1
w10107067,c5rue8tcx3,Nick_Dissertation_EX2_EP,1,36,2022-05-03T19:47:24+00:00,8.0999190807343,5,Pure_Unrelated.csv,READVersionA.csv,"Read Pure U A","Read Pure U A",PARCEL,THROAT,Study1,U,67,14,STUDY,8,8,,Study/JOL,"Study Phase",8002,,,-1,-1,,,,1
w10107067,c5rue8tcx3,Nick_Dissertation_EX2_EP,1,37,2022-05-03T19:47:32+00:00,8.1237089633942,5,Pure_Unrelated.csv,READVersionA.csv,"Read Pure U A","Read Pure U A",NUMBER,HARD,Study1,U,78,16,STUDY,8,8,,Study/JOL,"Study Phase",8002,,,-1,-1,,,,1
w10107067,c5rue8tcx3,Nick_Dissertation_EX2_EP,1,38,2022-05-03T19:47:40+00:00,8.1125628948212,5,Pure_Unrelated.csv,READVersionA.csv,"Read Pure U A","Read Pure U A",KEYS,JOKE,Study1,U,15,22,STUDY,8,8,,Study/JOL,"Study Phase",8002,,,-1,-1,,,,1
w10107067,c5rue8tcx3,Nick_Dissertation_EX2_EP,1,39,2022-05-03T19:47:49+00:00,8.1140780448914,5,Pure_Unrelated.csv,READVersionA.csv,"Read Pure U A","Read Pure U A",STRESS,YAM,Study1,U,68,42,STUDY,8,8,,Study/JOL,"Study Phase",8002,,,-1,-1,,,,1
w10107067,c5rue8tcx3,Nick_Dissertation_EX2_EP,1,40,2022-05-03T19:47:57+00:00,8.1154589653015,5,Pure_Unrelated.csv,READVersionA.csv,"Read Pure U A","Read Pure U A",GRIND,STAND,Study1,U,85,43,STUDY,8,8,,Study/JOL,"Study Phase",8002,,,-1,-1,,,,1
w10107067,c5rue8tcx3,Nick_Dissertation_EX2_EP,1,41,2022-05-03T19:48:05+00:00,8.1081421375275,5,Pure_Unrelated.csv,READVersionA.csv,"Read Pure U A","Read Pure U A",NAME,HATE,Study1,U,17,34,STUDY,8,8,,Study/JOL,"Study Phase",8002,,,-1,-1,,,,1
w10107067,c5rue8tcx3,Nick_Dissertation_EX2_EP,1,42,2022-05-03T19:48:13+00:00,8.1294708251953,5,Pure_Unrelated.csv,READVersionA.csv,"Read Pure U A","Read Pure U A",ROSE,NEGLECT,Study1,U,82,25,STUDY,8,8,,Study/JOL,"Study Phase",8002,,,-1,-1,,,,1
w10107067,c5rue8tcx3,Nick_Dissertation_EX2_EP,1,43,2022-05-03T19:48:21+00:00,8.1054301261902,5,Pure_Unrelated.csv,READVersionA.csv,"Read Pure U A","Read Pure U A",MIRROR,CHILDREN,Study1,U,24,36,STUDY,8,8,,Study/JOL,"Study Phase",8002,,,-1,-1,,,,1
w10107067,c5rue8tcx3,Nick_Dissertation_EX2_EP,1,44,2022-05-03T19:48:29+00:00,8.1135728359222,5,Pure_Unrelated.csv,READVersionA.csv,"Read Pure U A","Read Pure U A",DONKEY,LUSH,Study1,U,84,19,STUDY,8,8,,Study/JOL,"Study Phase",8001,,,-1,-1,,,,1
w10107067,c5rue8tcx3,Nick_Dissertation_EX2_EP,1,45,2022-05-03T19:48:37+00:00,8.1161081790924,5,Pure_Unrelated.csv,READVersionA.csv,"Read Pure U A","Read Pure U A",TEMPERATURE,MORNING,Study1,U,23,45,STUDY,8,8,,Study/JOL,"Study Phase",8002,,,-1,-1,,,,1
w10107067,c5rue8tcx3,Nick_Dissertation_EX2_EP,1,46,2022-05-03T19:48:45+00:00,8.1255939006805,5,Pure_Unrelated.csv,READVersionA.csv,"Read Pure U A","Read Pure U A",WARN,SEA,Study1,U,80,31,STUDY,8,8,,Study/JOL,"Study Phase",8001,,,-1,-1,,,,1
w10107067,c5rue8tcx3,Nick_Dissertation_EX2_EP,1,47,2022-05-03T19:48:53+00:00,8.1279900074005,5,Pure_Unrelated.csv,READVersionA.csv,"Read Pure U A","Read Pure U A",MOON,SPACE,BUFFER2,Buffer,89,50,STUDY,8,8,,Study/JOL,BUFFER2,8002,,,-1,-1,,,,1
w10107067,c5rue8tcx3,Nick_Dissertation_EX2_EP,1,48,2022-05-03T19:49:02+00:00,8.1150050163269,5,Pure_Unrelated.csv,READVersionA.csv,"Read Pure U A","Read Pure U A",GEESE,GOOSE,BUFFER2,Buffer,86,48,STUDY,8,8,,Study/JOL,BUFFER2,8002,,,-1,-1,,,,1
w10107067,c5rue8tcx3,Nick_Dissertation_EX2_EP,1,49,2022-05-03T19:49:10+00:00,8.1280560493469,5,Pure_Unrelated.csv,READVersionA.csv,"Read Pure U A","Read Pure U A",THING,STUFF,BUFFER2,Buffer,90,51,STUDY,8,8,,Study/JOL,BUFFER2,8002,,,-1,-1,,,,1
w10107067,c5rue8tcx3,Nick_Dissertation_EX2_EP,1,50,2022-05-03T19:49:18+00:00,8.122092962265,5,Pure_Unrelated.csv,READVersionA.csv,"Read Pure U A","Read Pure U A",SHERRIF,POLICE,BUFFER2,Buffer,87,47,STUDY,8,8,,Study/JOL,BUFFER2,8002,,,-1,-1,,,,1
w10107067,c5rue8tcx3,Nick_Dissertation_EX2_EP,1,51,2022-05-03T19:49:26+00:00,8.1089549064636,5,Pure_Unrelated.csv,READVersionA.csv,"Read Pure U A","Read Pure U A",MALT,CHOCOLATE,BUFFER2,Buffer,88,49,STUDY,8,8,,Study/JOL,BUFFER2,8002,,,-1,-1,,,,1
w10107067,c5rue8tcx3,Nick_Dissertation_EX2_EP,1,52,2022-05-03T19:49:31+00:00,5.362948179245,5,Pure_Unrelated.csv,READVersionA.csv,"Read Pure U A","Read Pure U A",,,,,,0,Instruct,User,-,"You have completed this section. Please press Enter.",Filler_Instruction,Instruct2,5261,,,-1,-1,,,,1
w10107067,c5rue8tcx3,Nick_Dissertation_EX2_EP,1,53,2022-05-03T19:51:31+00:00,120.1163649559,5,Pure_Unrelated.csv,READVersionA.csv,"Read Pure U A","Read Pure U A",,,,,,0,FreeRecall,120,120,"Please list the 50 US states in alphabetical order. The task will automatically advance to the next screen after two minutes.",,Filler1,120002,"alabama alaska arizona Arkansas california colorado connectivity Delaware florida Georgia hawaii Idaho Illinois india Iowa kansas ",0,28246,117875,0,0,,1
w10107067,c5rue8tcx3,Nick_Dissertation_EX2_EP,1,54,2022-05-03T19:51:44+00:00,12.652344942093,5,Pure_Unrelated.csv,READVersionA.csv,"Read Pure U A","Read Pure U A",,,,,,0,Instruct,-,10,"You will now be presented with the first word from each of the previously studied item pairs. Please type the missing word. If you do not know the word, you may guess or press Enter to skip forward to the next pair.",,Instruct3,12535,,,38,38,,,,1
w10107067,c5rue8tcx3,Nick_Dissertation_EX2_EP,1,55,2022-05-03T19:51:50+00:00,6.181713104248,5,Pure_Unrelated.csv,READVersionA.csv,"Read Pure U A","Read Pure U A",TAX,OWL,Study1,U,72,10,Test,User,-,,Recall,Recall1,6045,money,25,2916,5050,0,0,,1
w10107067,c5rue8tcx3,Nick_Dissertation_EX2_EP,1,56,2022-05-03T19:51:57+00:00,6.4973318576813,5,Pure_Unrelated.csv,READVersionA.csv,"Read Pure U A","Read Pure U A",MAZE,ELECTION,Study1,U,9,44,Test,User,-,,Recall,Recall1,6367,puzzle,28.571428571429,2045,5033,0,0,,1
w10107067,c5rue8tcx3,Nick_Dissertation_EX2_EP,1,57,2022-05-03T19:52:02+00:00,4.8505029678345,5,Pure_Unrelated.csv,READVersionA.csv,"Read Pure U A","Read Pure U A",CRACKLE,ABLE,Study1,U,12,40,Test,User,-,,Recall,Recall1,4741," pop",0,2393,3787,0,0,,1
w10107067,c5rue8tcx3,Nick_Dissertation_EX2_EP,1,58,2022-05-03T19:52:07+00:00,5.5217549800873,5,Pure_Unrelated.csv,READVersionA.csv,"Read Pure U A","Read Pure U A",LOAN,SIGN,Study1,U,21,27,Test,User,-,,Recall,Recall1,5420,money,22.222222222222,1603,4474,0,0,,1
w10107067,c5rue8tcx3,Nick_Dissertation_EX2_EP,1,59,2022-05-03T19:52:18+00:00,10.513981103897,5,Pure_Unrelated.csv,READVersionA.csv,"Read Pure U A","Read Pure U A",KEYS,JOKE,Study1,U,15,22,Test,User,-,,Recall,Recall1,10406," ",0,6821,6821,0,0,,1
w10107067,c5rue8tcx3,Nick_Dissertation_EX2_EP,1,60,2022-05-03T19:52:23+00:00,5.0894749164581,5,Pure_Unrelated.csv,READVersionA.csv,"Read Pure U A","Read Pure U A",BAT,SHAKY,Study1,U,66,20,Test,User,-,,Recall,Recall1,4986," crack",40,2260,4233,0,0,,1
w10107067,c5rue8tcx3,Nick_Dissertation_EX2_EP,1,61,2022-05-03T19:52:26+00:00,3.5283780097961,5,Pure_Unrelated.csv,READVersionA.csv,"Read Pure U A","Read Pure U A",STRETCH,CLOTH,Study1,U,7,28,Test,User,-,,Recall,Recall1,3452," cloth",100,1283,2558,1,1,,1
w10107067,c5rue8tcx3,Nick_Dissertation_EX2_EP,1,62,2022-05-03T19:52:30+00:00,3.3769290447235,5,Pure_Unrelated.csv,READVersionA.csv,"Read Pure U A","Read Pure U A",GRIND,STAND,Study1,U,85,43,Test,User,-,,Recall,Recall1,3301," hard",44.444444444444,1220,2255,0,0,,1
w10107067,c5rue8tcx3,Nick_Dissertation_EX2_EP,1,63,2022-05-03T19:52:35+00:00,5.447674036026,5,Pure_Unrelated.csv,READVersionA.csv,"Read Pure U A","Read Pure U A",MIRROR,CHILDREN,Study1,U,24,36,Test,User,-,,Recall,Recall1,5351," children",100,1212,4357,1,1,,1
w10107067,c5rue8tcx3,Nick_Dissertation_EX2_EP,1,64,2022-05-03T19:52:41+00:00,5.5932879447937,5,Pure_Unrelated.csv,READVersionA.csv,"Read Pure U A","Read Pure U A",TEMPERATURE,MORNING,Study1,U,23,45,Test,User,-,,Recall,Recall1,5488," morning",100,1699,3512,1,1,,1
w10107067,c5rue8tcx3,Nick_Dissertation_EX2_EP,1,65,2022-05-03T19:52:56+00:00,14.828361034393,5,Pure_Unrelated.csv,READVersionA.csv,"Read Pure U A","Read Pure U A",RESIST,GLUE,Study1,U,69,35,Test,User,-,,Recall,Recall1,14702," move",25,4862,13147,0,0,,1
w10107067,c5rue8tcx3,Nick_Dissertation_EX2_EP,1,66,2022-05-03T19:53:05+00:00,9.362340927124,5,Pure_Unrelated.csv,READVersionA.csv,"Read Pure U A","Read Pure U A",CAKE,CLOTHES,Study1,U,16,38,Test,User,-,,Recall,Recall1,9259," clothing",66.666666666667,3531,8195,0,0,,1
w10107067,c5rue8tcx3,Nick_Dissertation_EX2_EP,1,67,2022-05-03T19:53:12+00:00,7.3777921199799,5,Pure_Unrelated.csv,READVersionA.csv,"Read Pure U A","Read Pure U A",NAME,HATE,Study1,U,17,34,Test,User,-,,Recall,Recall1,6444," title",44.444444444444,1721,5462,0,0,,1
w10107067,c5rue8tcx3,Nick_Dissertation_EX2_EP,1,68,2022-05-03T19:53:16+00:00,4.1346309185028,5,Pure_Unrelated.csv,READVersionA.csv,"Read Pure U A","Read Pure U A",CRAYON,RATE,Study1,U,79,11,Test,User,-,,Recall,Recall1,3958," color",22.222222222222,1277,3035,0,0,,1
w10107067,c5rue8tcx3,Nick_Dissertation_EX2_EP,1,69,2022-05-03T19:53:22+00:00,5.4668190479279,5,Pure_Unrelated.csv,READVersionA.csv,"Read Pure U A","Read Pure U A",MOAT,CLEAR,Study1,U,19,37,Test,User,-,,Recall,Recall1,5357," milk",22.222222222222,1373,4448,0,0,,1
w10107067,c5rue8tcx3,Nick_Dissertation_EX2_EP,1,70,2022-05-03T19:53:27+00:00,5.5334160327911,5,Pure_Unrelated.csv,READVersionA.csv,"Read Pure U A","Read Pure U A",LEASE,TOIL,Study1,U,20,41,Test,User,-,,Recall,Recall1,5407," loan",25,1105,4527,0,0,,1
w10107067,c5rue8tcx3,Nick_Dissertation_EX2_EP,1,71,2022-05-03T19:53:41+00:00,13.477837085724,5,Pure_Unrelated.csv,READVersionA.csv,"Read Pure U A","Read Pure U A",DONKEY,LUSH,Study1,U,84,19,Test,User,-,,Recall,Recall1,13362," donkey",0,8201,12407,0,0,,1
w10107067,c5rue8tcx3,Nick_Dissertation_EX2_EP,1,72,2022-05-03T19:53:46+00:00,5.0427899360657,5,Pure_Unrelated.csv,READVersionA.csv,"Read Pure U A","Read Pure U A",WARN,SEA,Study1,U,80,31,Test,User,-,,Recall,Recall1,4904,sea,100,3428,3783,1,1,,1
w10107067,c5rue8tcx3,Nick_Dissertation_EX2_EP,1,73,2022-05-03T19:53:52+00:00,6.0644240379333,5,Pure_Unrelated.csv,READVersionA.csv,"Read Pure U A","Read Pure U A",THICK,CONTEST,Study1,U,73,32,Test,User,-,,Recall,Recall1,5963," cake",36.363636363636,2008,4891,0,0,,1
w10107067,c5rue8tcx3,Nick_Dissertation_EX2_EP,1,74,2022-05-03T19:54:02+00:00,10.138598918915,5,Pure_Unrelated.csv,READVersionA.csv,"Read Pure U A","Read Pure U A",NUMBER,HARD,Study1,U,78,16,Test,User,-,,Recall,Recall1,10036," money",0,5211,9060,0,0,,1
w10107067,c5rue8tcx3,Nick_Dissertation_EX2_EP,1,75,2022-05-03T19:54:08+00:00,5.8059339523315,5,Pure_Unrelated.csv,READVersionA.csv,"Read Pure U A","Read Pure U A",MAIN,SCAR,Study1,U,25,26,Test,User,-,,Recall,Recall1,5697," side",25,1211,4746,0,0,,1
w10107067,c5rue8tcx3,Nick_Dissertation_EX2_EP,1,76,2022-05-03T19:54:14+00:00,6.2901539802551,5,Pure_Unrelated.csv,READVersionA.csv,"Read Pure U A","Read Pure U A",BOTH,OUNCE,Study1,U,22,9,Test,User,-,,Recall,Recall1,6152," pair",0,1270,4584,0,0,,1
w10107067,c5rue8tcx3,Nick_Dissertation_EX2_EP,1,77,2022-05-03T19:54:27+00:00,12.888419151306,5,Pure_Unrelated.csv,READVersionA.csv,"Read Pure U A","Read Pure U A",BROAD,INFECT,Study1,U,75,33,Test,User,-,,Recall,Recall1,12776," big",22.222222222222,10921,11647,0,0,,1
w10107067,c5rue8tcx3,Nick_Dissertation_EX2_EP,1,78,2022-05-03T19:54:44+00:00,16.421468019485,5,Pure_Unrelated.csv,READVersionA.csv,"Read Pure U A","Read Pure U A",ROSE,NEGLECT,Study1,U,82,25,Test,User,-,,Recall,Recall1,16319," temperature",11.111111111111,5337,15374,0,0,,1
w10107067,c5rue8tcx3,Nick_Dissertation_EX2_EP,1,79,2022-05-03T19:54:48+00:00,4.7601339817047,5,Pure_Unrelated.csv,READVersionA.csv,"Read Pure U A","Read Pure U A",INFLATE,DISGUST,Study1,U,76,39,Test,User,-,,Recall,Recall1,4604,deflate,28.571428571429,1773,3656,0,0,,1
w10107067,c5rue8tcx3,Nick_Dissertation_EX2_EP,1,80,2022-05-03T19:54:55+00:00,6.7123029232025,5,Pure_Unrelated.csv,READVersionA.csv,"Read Pure U A","Read Pure U A",MEAT,OBTAIN,Study1,U,11,24,Test,User,-,,Recall,Recall1,6607," size",20,3909,5107,0,0,,1
w10107067,c5rue8tcx3,Nick_Dissertation_EX2_EP,1,81,2022-05-03T19:55:00+00:00,4.9686450958252,5,Pure_Unrelated.csv,READVersionA.csv,"Read Pure U A","Read Pure U A",VEHICLE,CHARM,Study1,U,10,15,Test,User,-,,Recall,Recall1,4850," car",75,2174,3350,0,1,,1
w10107067,c5rue8tcx3,Nick_Dissertation_EX2_EP,1,82,2022-05-03T19:55:08+00:00,7.8631539344788,5,Pure_Unrelated.csv,READVersionA.csv,"Read Pure U A","Read Pure U A",DEGREE,CHAIR,Study1,U,71,8,Test,User,-,,Recall,Recall1,7748," morning",16.666666666667,3745,6038,0,0,,1
w10107067,c5rue8tcx3,Nick_Dissertation_EX2_EP,1,83,2022-05-03T19:55:11+00:00,3.643875837326,5,Pure_Unrelated.csv,READVersionA.csv,"Read Pure U A","Read Pure U A",PET,MOON,Study1,U,74,7,Test,User,-,,Recall,Recall1,3559," dog",28.571428571429,1445,2630,0,0,,1
w10107067,c5rue8tcx3,Nick_Dissertation_EX2_EP,1,84,2022-05-03T19:55:15+00:00,3.2508811950684,5,Pure_Unrelated.csv,READVersionA.csv,"Read Pure U A","Read Pure U A",PARCEL,THROAT,Study1,U,67,14,Test,User,-,,Recall,Recall1,3176," ",0,1848,1848,0,0,,1
w10107067,c5rue8tcx3,Nick_Dissertation_EX2_EP,1,85,2022-05-03T19:55:19+00:00,4.2589538097382,5,Pure_Unrelated.csv,READVersionA.csv,"Read Pure U A","Read Pure U A",LISTEN,FICTION,Study1,U,14,13,Test,User,-,,Recall,Recall1,4156," learn",16.666666666667,1210,3225,0,0,,1
w10107067,c5rue8tcx3,Nick_Dissertation_EX2_EP,1,86,2022-05-03T19:55:23+00:00,4.1601071357727,5,Pure_Unrelated.csv,READVersionA.csv,"Read Pure U A","Read Pure U A",FUTURE,SINCERE,Study1,U,70,17,Test,User,-,,Recall,Recall1,4039," present",28.571428571429,1384,3117,0,0,,1
w10107067,c5rue8tcx3,Nick_Dissertation_EX2_EP,1,87,2022-05-03T19:55:30+00:00,6.4668509960175,5,Pure_Unrelated.csv,READVersionA.csv,"Read Pure U A","Read Pure U A",DIZZY,SWEATER,Study1,U,77,21,Test,User,-,,Recall,Recall1,6354," steady",46.153846153846,2266,5479,0,0,,1
w10107067,c5rue8tcx3,Nick_Dissertation_EX2_EP,1,88,2022-05-03T19:55:36+00:00,6.7084698677063,5,Pure_Unrelated.csv,READVersionA.csv,"Read Pure U A","Read Pure U A",RIPE,VERIFY,Study1,U,83,29,Test,User,-,,Recall,Recall1,6594," distant",15.384615384615,3086,5320,0,0,,1
w10107067,c5rue8tcx3,Nick_Dissertation_EX2_EP,1,89,2022-05-03T19:55:40+00:00,4.1608002185822,5,Pure_Unrelated.csv,READVersionA.csv,"Read Pure U A","Read Pure U A",DIFFICULT,POOR,Study1,U,81,30,Test,User,-,,Recall,Recall1,4049," poor",100,1597,3146,1,1,,1
w10107067,c5rue8tcx3,Nick_Dissertation_EX2_EP,1,90,2022-05-03T19:55:46+00:00,5.8838999271393,5,Pure_Unrelated.csv,READVersionA.csv,"Read Pure U A","Read Pure U A",STRESS,YAM,Study1,U,68,42,Test,User,-,,Recall,Recall1,5778," poor",0,1488,4779,0,0,,1
w10107067,c5rue8tcx3,Nick_Dissertation_EX2_EP,1,91,2022-05-03T19:55:51+00:00,4.8688659667969,5,Pure_Unrelated.csv,READVersionA.csv,"Read Pure U A","Read Pure U A",JUSTICE,MAROON,Study1,U,6,23,Test,User,-,,Recall,Recall1,4762," rights",16.666666666667,2093,3741,0,0,,1
w10107067,c5rue8tcx3,Nick_Dissertation_EX2_EP,1,92,2022-05-03T19:55:57+00:00,5.2634129524231,5,Pure_Unrelated.csv,READVersionA.csv,"Read Pure U A","Read Pure U A",FUZZY,BANG,Study1,U,18,18,Test,User,-,,Recall,Recall1,5159," bear",50,1280,4197,0,0,,1
w10107067,c5rue8tcx3,Nick_Dissertation_EX2_EP,1,93,2022-05-03T19:55:59+00:00,2.8716149330139,5,Pure_Unrelated.csv,READVersionA.csv,"Read Pure U A","Read Pure U A",SHELL,SHAKE,Study1,U,13,12,Test,User,-,,Recall,Recall1,2793," sea",50,1129,1853,0,0,,1
w10107067,c5rue8tcx3,Nick_Dissertation_EX2_EP,1,94,2022-05-03T19:56:05+00:00,5.3640761375427,5,Pure_Unrelated.csv,READVersionA.csv,"Read Pure U A","Read Pure U A",GIVE,STEAK,Study1,U,8,46,Test,User,-,,Recall,Recall1,5265," receive",16.666666666667,1239,3228,0,0,,1
w10107067,c5rue8tcx3,Nick_Dissertation_EX2_EP,1,95,2022-05-03T19:56:24+00:00,19.097445964813,5,Pure_Unrelated.csv,READVersionA.csv,"Read Pure U A","Read Pure U A",,,,,,0,Instruct,-,10,"You will now be presented with a new set of word pairs. Please study each pair. Remember that your memory will be tested! Each pair will be displayed on the computer screen and will automatically advance to the next pair. Press ENTER when you are ready to begin.",Initial_Instruct,Instruct4,18994,,,-1,-1,,,,1
w10107067,c5rue8tcx3,Nick_Dissertation_EX2_EP,1,96,2022-05-03T19:56:32+00:00,8.1104590892792,5,Pure_Unrelated.csv,READVersionA.csv,"Read Pure U A","Read Pure U A",ICE,FROZEN,BUFFER3,Buffer,94,55,STUDY,8,8,,Study/JOL,BUFFER3,8002,,,-1,-1,,,,1
w10107067,c5rue8tcx3,Nick_Dissertation_EX2_EP,1,97,2022-05-03T19:56:40+00:00,8.1158449649811,5,Pure_Unrelated.csv,READVersionA.csv,"Read Pure U A","Read Pure U A",SHRIMP,FISH,BUFFER3,Buffer,93,53,STUDY,8,8,,Study/JOL,BUFFER3,8003,,,-1,-1,,,,1
w10107067,c5rue8tcx3,Nick_Dissertation_EX2_EP,1,98,2022-05-03T19:56:48+00:00,8.1275849342346,5,Pure_Unrelated.csv,READVersionA.csv,"Read Pure U A","Read Pure U A",NOODLE,STRING,BUFFER3,Buffer,92,54,STUDY,8,8,,Study/JOL,BUFFER3,8002,,,-1,-1,,,,1
w10107067,c5rue8tcx3,Nick_Dissertation_EX2_EP,1,99,2022-05-03T19:56:56+00:00,8.1100659370422,5,Pure_Unrelated.csv,READVersionA.csv,"Read Pure U A","Read Pure U A",CAMP,ADVENTURE,BUFFER3,Buffer,95,56,STUDY,8,8,,Study/JOL,BUFFER3,8002,,,-1,-1,,,,1
w10107067,c5rue8tcx3,Nick_Dissertation_EX2_EP,1,100,2022-05-03T19:57:04+00:00,8.1121261119843,5,Pure_Unrelated.csv,READVersionA.csv,"Read Pure U A","Read Pure U A",CARROT,POTATO,BUFFER3,Buffer,91,52,STUDY,8,8,,Study/JOL,BUFFER3,8003,,,-1,-1,,,,1
w10107067,c5rue8tcx3,Nick_Dissertation_EX2_EP,1,101,2022-05-03T19:57:13+00:00,8.1312980651855,5,Pure_Unrelated.csv,READVersionA.csv,"Read Pure U A","Read Pure U A",SYSTEM,LICK,Study2,U,167,78,STUDY,8,8,,Study/JOL,"Study Phase2",8002,,,-1,-1,,,,1
w10107067,c5rue8tcx3,Nick_Dissertation_EX2_EP,1,102,2022-05-03T19:57:21+00:00,8.124135017395,5,Pure_Unrelated.csv,READVersionA.csv,"Read Pure U A","Read Pure U A",HAND,FIX,Study2,U,105,69,STUDY,8,8,,Study/JOL,"Study Phase2",8002,,,-1,-1,,,,1
w10107067,c5rue8tcx3,Nick_Dissertation_EX2_EP,1,103,2022-05-03T19:57:29+00:00,8.1187629699707,5,Pure_Unrelated.csv,READVersionA.csv,"Read Pure U A","Read Pure U A",DETECT,FREE,Study2,U,162,95,STUDY,8,8,,Study/JOL,"Study Phase2",8002,,,-1,-1,,,,1
w10107067,c5rue8tcx3,Nick_Dissertation_EX2_EP,1,104,2022-05-03T19:57:37+00:00,8.1320040225983,5,Pure_Unrelated.csv,READVersionA.csv,"Read Pure U A","Read Pure U A",BELT,SOON,Study2,U,100,93,STUDY,8,8,,Study/JOL,"Study Phase2",8002,,,-1,-1,,,,1
w10107067,c5rue8tcx3,Nick_Dissertation_EX2_EP,1,105,2022-05-03T19:57:45+00:00,8.1137759685516,5,Pure_Unrelated.csv,READVersionA.csv,"Read Pure U A","Read Pure U A",SMOOTH,OMIT,Study2,U,157,59,STUDY,8,8,,Study/JOL,"Study Phase2",8001,,,-1,-1,,,,1
w10107067,c5rue8tcx3,Nick_Dissertation_EX2_EP,1,106,2022-05-03T19:57:53+00:00,8.1134438514709,5,Pure_Unrelated.csv,READVersionA.csv,"Read Pure U A","Read Pure U A",FLOOR,DISCOVER,Study2,U,101,67,STUDY,8,8,,Study/JOL,"Study Phase2",8001,,,-1,-1,,,,1
w10107067,c5rue8tcx3,Nick_Dissertation_EX2_EP,1,107,2022-05-03T19:58:01+00:00,8.1265079975128,5,Pure_Unrelated.csv,READVersionA.csv,"Read Pure U A","Read Pure U A",ACCIDENT,STRONG,Study2,U,110,85,STUDY,8,8,,Study/JOL,"Study Phase2",8002,,,-1,-1,,,,1
w10107067,c5rue8tcx3,Nick_Dissertation_EX2_EP,1,108,2022-05-03T19:58:09+00:00,8.1230900287628,5,Pure_Unrelated.csv,READVersionA.csv,"Read Pure U A","Read Pure U A",GUARD,WHEEL,Study2,U,170,79,STUDY,8,8,,Study/JOL,"Study Phase2",8002,,,-1,-1,,,,1
w10107067,c5rue8tcx3,Nick_Dissertation_EX2_EP,1,109,2022-05-03T19:58:18+00:00,8.1173951625824,5,Pure_Unrelated.csv,READVersionA.csv,"Read Pure U A","Read Pure U A",ADD,VALLEY,Study2,U,112,80,STUDY,8,8,,Study/JOL,"Study Phase2",8002,,,-1,-1,,,,1
w10107067,c5rue8tcx3,Nick_Dissertation_EX2_EP,1,110,2022-05-03T19:58:26+00:00,8.137717962265,5,Pure_Unrelated.csv,READVersionA.csv,"Read Pure U A","Read Pure U A",SIGHT,DEBATE,Study2,U,103,70,STUDY,8,8,,Study/JOL,"Study Phase2",8003,,,-1,-1,,,,1
w10107067,c5rue8tcx3,Nick_Dissertation_EX2_EP,1,111,2022-05-03T19:58:34+00:00,8.1272518634796,5,Pure_Unrelated.csv,READVersionA.csv,"Read Pure U A","Read Pure U A",WOULD,CASH,Study2,U,113,60,STUDY,8,8,,Study/JOL,"Study Phase2",8002,,,-1,-1,,,,1
w10107067,c5rue8tcx3,Nick_Dissertation_EX2_EP,1,112,2022-05-03T19:58:42+00:00,8.1146421432495,5,Pure_Unrelated.csv,READVersionA.csv,"Read Pure U A","Read Pure U A",SWING,FOG,Study2,U,175,68,STUDY,8,8,,Study/JOL,"Study Phase2",8002,,,-1,-1,,,,1
w10107067,c5rue8tcx3,Nick_Dissertation_EX2_EP,1,113,2022-05-03T19:58:50+00:00,8.1104679107666,5,Pure_Unrelated.csv,READVersionA.csv,"Read Pure U A","Read Pure U A",CLUTTER,PUSHER,Study2,U,96,76,STUDY,8,8,,Study/JOL,"Study Phase2",8000,,,-1,-1,,,,1
w10107067,c5rue8tcx3,Nick_Dissertation_EX2_EP,1,114,2022-05-03T19:58:59+00:00,8.8626449108124,5,Pure_Unrelated.csv,READVersionA.csv,"Read Pure U A","Read Pure U A",PUFF,NUMBER,Study2,U,171,65,STUDY,8,8,,Study/JOL,"Study Phase2",8001,,,-1,-1,,,,1
w10107067,c5rue8tcx3,Nick_Dissertation_EX2_EP,1,115,2022-05-03T19:59:07+00:00,8.1345720291138,5,Pure_Unrelated.csv,READVersionA.csv,"Read Pure U A","Read Pure U A",HUNGRY,PARK,Study2,U,98,96,STUDY,8,8,,Study/JOL,"Study Phase2",8002,,,-1,-1,,,,1
w10107067,c5rue8tcx3,Nick_Dissertation_EX2_EP,1,116,2022-05-03T19:59:15+00:00,8.1168999671936,5,Pure_Unrelated.csv,READVersionA.csv,"Read Pure U A","Read Pure U A",WASTE,SEDATE,Study2,U,165,84,STUDY,8,8,,Study/JOL,"Study Phase2",8002,,,-1,-1,,,,1
w10107067,c5rue8tcx3,Nick_Dissertation_EX2_EP,1,117,2022-05-03T19:59:23+00:00,8.1087901592255,5,Pure_Unrelated.csv,READVersionA.csv,"Read Pure U A","Read Pure U A",ROAD,SCENT,Study2,U,166,94,STUDY,8,8,,Study/JOL,"Study Phase2",8002,,,-1,-1,,,,1
w10107067,c5rue8tcx3,Nick_Dissertation_EX2_EP,1,118,2022-05-03T19:59:32+00:00,8.4276900291443,5,Pure_Unrelated.csv,READVersionA.csv,"Read Pure U A","Read Pure U A",WOMAN,LIFT,Study2,U,99,88,STUDY,8,8,,Study/JOL,"Study Phase2",8001,,,-1,-1,,,,1
w10107067,c5rue8tcx3,Nick_Dissertation_EX2_EP,1,119,2022-05-03T19:59:40+00:00,8.1085939407349,5,Pure_Unrelated.csv,READVersionA.csv,"Read Pure U A","Read Pure U A",ZOO,THUMB,Study2,U,168,61,STUDY,8,8,,Study/JOL,"Study Phase2",8001,,,-1,-1,,,,1
w10107067,c5rue8tcx3,Nick_Dissertation_EX2_EP,1,120,2022-05-03T19:59:48+00:00,8.1404190063477,5,Pure_Unrelated.csv,READVersionA.csv,"Read Pure U A","Read Pure U A",SLIM,KNOW,Study2,U,164,81,STUDY,8,8,,Study/JOL,"Study Phase2",8001,,,-1,-1,,,,1
w10107067,c5rue8tcx3,Nick_Dissertation_EX2_EP,1,121,2022-05-03T19:59:56+00:00,8.1404058933258,5,Pure_Unrelated.csv,READVersionA.csv,"Read Pure U A","Read Pure U A",CAR,HAPPY,Study2,U,107,91,STUDY,8,8,,Study/JOL,"Study Phase2",8002,,,-1,-1,,,,1
w10107067,c5rue8tcx3,Nick_Dissertation_EX2_EP,1,122,2022-05-03T20:00:05+00:00,8.7002170085907,5,Pure_Unrelated.csv,READVersionA.csv,"Read Pure U A","Read Pure U A",FLOAT,HARMONY,Study2,U,161,75,STUDY,8,8,,Study/JOL,"Study Phase2",8001,,,-1,-1,,,,1
w10107067,c5rue8tcx3,Nick_Dissertation_EX2_EP,1,123,2022-05-03T20:00:13+00:00,8.1194360256195,5,Pure_Unrelated.csv,READVersionA.csv,"Read Pure U A","Read Pure U A",DESIRE,NOISE,Study2,U,169,87,STUDY,8,8,,Study/JOL,"Study Phase2",8003,,,-1,-1,,,,1
w10107067,c5rue8tcx3,Nick_Dissertation_EX2_EP,1,124,2022-05-03T20:00:21+00:00,8.1227691173553,5,Pure_Unrelated.csv,READVersionA.csv,"Read Pure U A","Read Pure U A",TUCK,ALLOW,Study2,U,108,74,STUDY,8,8,,Study/JOL,"Study Phase2",8001,,,-1,-1,,,,1
w10107067,c5rue8tcx3,Nick_Dissertation_EX2_EP,1,125,2022-05-03T20:00:29+00:00,8.1160750389099,5,Pure_Unrelated.csv,READVersionA.csv,"Read Pure U A","Read Pure U A",JUSTICE,MAROON,Study1,U,6,23,STUDY,8,8,,Study/JOL,"Study Phase2",8002,,,-1,-1,,,,1
w10107067,c5rue8tcx3,Nick_Dissertation_EX2_EP,1,126,2022-05-03T20:00:37+00:00,8.1137809753418,5,Pure_Unrelated.csv,READVersionA.csv,"Read Pure U A","Read Pure U A",SMOOTH,OMIT,Study2,U,157,59,STUDY,8,8,,Study/JOL,"Study Phase2",8003,,,-1,-1,,,,1
w10107067,c5rue8tcx3,Nick_Dissertation_EX2_EP,1,127,2022-05-03T20:00:45+00:00,8.1127438545227,5,Pure_Unrelated.csv,READVersionA.csv,"Read Pure U A","Read Pure U A",PUT,ROLL,Study2,U,163,86,STUDY,8,8,,Study/JOL,"Study Phase2",8002,,,-1,-1,,,,1
w10107067,c5rue8tcx3,Nick_Dissertation_EX2_EP,1,128,2022-05-03T20:00:53+00:00,8.1258749961853,5,Pure_Unrelated.csv,READVersionA.csv,"Read Pure U A","Read Pure U A",STOMACH,TOWN,Study2,U,159,82,STUDY,8,8,,Study/JOL,"Study Phase2",8002,,,-1,-1,,,,1
w10107067,c5rue8tcx3,Nick_Dissertation_EX2_EP,1,129,2022-05-03T20:01:02+00:00,8.1095199584961,5,Pure_Unrelated.csv,READVersionA.csv,"Read Pure U A","Read Pure U A",LION,ART,Study2,U,109,90,STUDY,8,8,,Study/JOL,"Study Phase2",8003,,,-1,-1,,,,1
w10107067,c5rue8tcx3,Nick_Dissertation_EX2_EP,1,130,2022-05-03T20:01:10+00:00,8.1274859905243,5,Pure_Unrelated.csv,READVersionA.csv,"Read Pure U A","Read Pure U A",JELLY,NAUGHTY,Study2,U,172,57,STUDY,8,8,,Study/JOL,"Study Phase2",8002,,,-1,-1,,,,1
w10107067,c5rue8tcx3,Nick_Dissertation_EX2_EP,1,131,2022-05-03T20:01:18+00:00,8.117712020874,5,Pure_Unrelated.csv,READVersionA.csv,"Read Pure U A","Read Pure U A",READY,CORN,Study2,U,158,77,STUDY,8,8,,Study/JOL,"Study Phase2",8003,,,-1,-1,,,,1
w10107067,c5rue8tcx3,Nick_Dissertation_EX2_EP,1,132,2022-05-03T20:01:26+00:00,8.1039621829987,5,Pure_Unrelated.csv,READVersionA.csv,"Read Pure U A","Read Pure U A",MUTE,WAVE,Study2,U,173,71,STUDY,8,8,,Study/JOL,"Study Phase2",8002,,,-1,-1,,,,1
w10107067,c5rue8tcx3,Nick_Dissertation_EX2_EP,1,133,2022-05-03T20:01:34+00:00,8.3446509838104,5,Pure_Unrelated.csv,READVersionA.csv,"Read Pure U A","Read Pure U A",SPELL,BONE,Study2,U,174,63,STUDY,8,8,,Study/JOL,"Study Phase2",8000,,,-1,-1,,,,1
w10107067,c5rue8tcx3,Nick_Dissertation_EX2_EP,1,134,2022-05-03T20:01:42+00:00,8.1318099498749,5,Pure_Unrelated.csv,READVersionA.csv,"Read Pure U A","Read Pure U A",BRONZE,ARTERY,Study2,U,104,66,STUDY,8,8,,Study/JOL,"Study Phase2",8002,,,-1,-1,,,,1
w10107067,c5rue8tcx3,Nick_Dissertation_EX2_EP,1,135,2022-05-03T20:01:51+00:00,8.1181750297546,5,Pure_Unrelated.csv,READVersionA.csv,"Read Pure U A","Read Pure U A",SACKING,DIETARY,Study2,U,97,62,STUDY,8,8,,Study/JOL,"Study Phase2",8002,,,-1,-1,,,,1
w10107067,c5rue8tcx3,Nick_Dissertation_EX2_EP,1,136,2022-05-03T20:01:59+00:00,8.1269888877869,5,Pure_Unrelated.csv,READVersionA.csv,"Read Pure U A","Read Pure U A",SICK,HIDE,Study2,U,114,64,STUDY,8,8,,Study/JOL,"Study Phase2",8002,,,-1,-1,,,,1
w10107067,c5rue8tcx3,Nick_Dissertation_EX2_EP,1,137,2022-05-03T20:02:07+00:00,8.1212069988251,5,Pure_Unrelated.csv,READVersionA.csv,"Read Pure U A","Read Pure U A",VASE,KING,Study2,U,115,89,STUDY,8,8,,Study/JOL,"Study Phase2",8002,,,-1,-1,,,,1
w10107067,c5rue8tcx3,Nick_Dissertation_EX2_EP,1,138,2022-05-03T20:02:15+00:00,8.1205010414124,5,Pure_Unrelated.csv,READVersionA.csv,"Read Pure U A","Read Pure U A",POSITION,MACHINE,Study2,U,106,73,STUDY,8,8,,Study/JOL,"Study Phase2",8002,,,-1,-1,,,,1
w10107067,c5rue8tcx3,Nick_Dissertation_EX2_EP,1,139,2022-05-03T20:02:23+00:00,8.1365840435028,5,Pure_Unrelated.csv,READVersionA.csv,"Read Pure U A","Read Pure U A",LAKE,OPINION,Study2,U,160,72,STUDY,8,8,,Study/JOL,"Study Phase2",8001,,,-1,-1,,,,1
w10107067,c5rue8tcx3,Nick_Dissertation_EX2_EP,1,140,2022-05-03T20:02:31+00:00,8.125284910202,5,Pure_Unrelated.csv,READVersionA.csv,"Read Pure U A","Read Pure U A",RIDDLE,SUGAR,Study2,U,111,92,STUDY,8,8,,Study/JOL,"Study Phase2",8000,,,-1,-1,,,,1
w10107067,c5rue8tcx3,Nick_Dissertation_EX2_EP,1,141,2022-05-03T20:02:39+00:00,8.1168320178986,5,Pure_Unrelated.csv,READVersionA.csv,"Read Pure U A","Read Pure U A",MONTH,YEAR,BUFFER4,Buffer,177,98,STUDY,8,8,,Study/JOL,BUFFER4,8001,,,-1,-1,,,,1
w10107067,c5rue8tcx3,Nick_Dissertation_EX2_EP,1,142,2022-05-03T20:02:47+00:00,8.1164479255676,5,Pure_Unrelated.csv,READVersionA.csv,"Read Pure U A","Read Pure U A",DAYS,WEEKS,BUFFER4,Buffer,176,101,STUDY,8,8,,Study/JOL,BUFFER4,8000,,,-1,-1,,,,1
w10107067,c5rue8tcx3,Nick_Dissertation_EX2_EP,1,143,2022-05-03T20:02:55+00:00,8.1181371212006,5,Pure_Unrelated.csv,READVersionA.csv,"Read Pure U A","Read Pure U A",OCTOBER,SPOOKY,BUFFER4,Buffer,180,97,STUDY,8,8,,Study/JOL,BUFFER4,8003,,,-1,-1,,,,1
w10107067,c5rue8tcx3,Nick_Dissertation_EX2_EP,1,144,2022-05-03T20:03:04+00:00,8.1198749542236,5,Pure_Unrelated.csv,READVersionA.csv,"Read Pure U A","Read Pure U A",SPRING,MARCH,BUFFER4,Buffer,179,100,STUDY,8,8,,Study/JOL,BUFFER4,8002,,,-1,-1,,,,1
w10107067,c5rue8tcx3,Nick_Dissertation_EX2_EP,1,145,2022-05-03T20:03:12+00:00,8.4180610179901,5,Pure_Unrelated.csv,READVersionA.csv,"Read Pure U A","Read Pure U A",TOOL,SHED,BUFFER4,Buffer,178,99,STUDY,8,8,,Study/JOL,BUFFER4,8002,,,-1,-1,,,,1
w10107067,c5rue8tcx3,Nick_Dissertation_EX2_EP,1,146,2022-05-03T20:03:14+00:00,2.3576760292053,5,Pure_Unrelated.csv,READVersionA.csv,"Read Pure U A","Read Pure U A",,,,,,0,Instruct,User,-,"You have completed this section. Please press Enter.",Filler_Instruction,Instruct5,2283,,,-1,-1,,,,1
w10107067,c5rue8tcx3,Nick_Dissertation_EX2_EP,1,147,2022-05-03T20:05:14+00:00,120.1105530262,5,Pure_Unrelated.csv,READVersionA.csv,"Read Pure U A","Read Pure U A",,,,,,0,FreeRecall,120,120,"Please list the 50 US states in reverse alphabetical order (z - a). The task will automatically advance to the next screen after two minutes.",,Filler2,120001,"Wyoming Wisconsin West Virginia Washington virginia Vermont utah texas Tennessee South Dakota South Carolina Rhode Island pennsylvania Oregon oklahoma Ohio North Dakota North Carolina New York New Mexico New Jersey new hamshire nevada ne",0,11635,119686,0,0,,1
w10107067,c5rue8tcx3,Nick_Dissertation_EX2_EP,1,148,2022-05-03T20:05:29+00:00,14.197422027588,5,Pure_Unrelated.csv,READVersionA.csv,"Read Pure U A","Read Pure U A",,,,,,0,Instruct,-,10,"You will now be presented with the first word from each of the previously studied item pairs. Please type the missing word. If you do not know the word, you may guess or press Enter to skip forward to the next pair.",,Instruct6,14085,,,226,361,,,,1
w10107067,c5rue8tcx3,Nick_Dissertation_EX2_EP,1,149,2022-05-03T20:05:42+00:00,13.067008018494,5,Pure_Unrelated.csv,READVersionA.csv,"Read Pure U A","Read Pure U A",JELLY,NAUGHTY,Study2,U,172,57,Test,User,-,,Recall,Recall2,12940,"peanut butter",30,7206,12245,0,0,,1
w10107067,c5rue8tcx3,Nick_Dissertation_EX2_EP,1,150,2022-05-03T20:06:12+00:00,29.920348882675,5,Pure_Unrelated.csv,READVersionA.csv,"Read Pure U A","Read Pure U A",SMOOTH,OMIT,Study2,U,157,59,Test,User,-,,Recall,Recall2,29810,omit,100,27760,28476,1,1,,1
w10107067,c5rue8tcx3,Nick_Dissertation_EX2_EP,1,151,2022-05-03T20:06:32+00:00,20.363785982132,5,Pure_Unrelated.csv,READVersionA.csv,"Read Pure U A","Read Pure U A",STOMACH,TOWN,Study2,U,159,82,Test,User,-,,Recall,Recall2,20244,food,25,17955,19213,0,0,,1
w10107067,c5rue8tcx3,Nick_Dissertation_EX2_EP,1,152,2022-05-03T20:06:47+00:00,15.31210899353,5,Pure_Unrelated.csv,READVersionA.csv,"Read Pure U A","Read Pure U A",READY,CORN,Study2,U,158,77,Test,User,-,,Recall,Recall2,15173,prepared,16.666666666667,11461,13867,0,0,,1
w10107067,c5rue8tcx3,Nick_Dissertation_EX2_EP,1,153,2022-05-03T20:06:53+00:00,5.2161040306091,5,Pure_Unrelated.csv,READVersionA.csv,"Read Pure U A","Read Pure U A",PUFF,NUMBER,Study2,U,171,65,Test,User,-,,Recall,Recall2,5101,number,100,3009,4090,1,1,,1
w10107067,c5rue8tcx3,Nick_Dissertation_EX2_EP,1,154,2022-05-03T20:07:00+00:00,7.901948928833,5,Pure_Unrelated.csv,READVersionA.csv,"Read Pure U A","Read Pure U A",CLUTTER,PUSHER,Study2,U,96,76,Test,User,-,,Recall,Recall2,7781,plusher,92.307692307692,2883,4981,0,1,,1
w10107067,c5rue8tcx3,Nick_Dissertation_EX2_EP,1,155,2022-05-03T20:07:13+00:00,13.001116991043,5,Pure_Unrelated.csv,READVersionA.csv,"Read Pure U A","Read Pure U A",SACKING,DIETARY,Study2,U,97,62,Test,User,-,,Recall,Recall2,12884,packing,14.285714285714,10088,11587,0,0,,1
w10107067,c5rue8tcx3,Nick_Dissertation_EX2_EP,1,156,2022-05-03T20:07:32+00:00,18.79026222229,5,Pure_Unrelated.csv,READVersionA.csv,"Read Pure U A","Read Pure U A",SIGHT,DEBATE,Study2,U,103,70,Test,User,-,,Recall,Recall2,18678,debate,100,10764,17453,1,1,,1
w10107067,c5rue8tcx3,Nick_Dissertation_EX2_EP,1,157,2022-05-03T20:07:42+00:00,9.6742498874664,5,Pure_Unrelated.csv,READVersionA.csv,"Read Pure U A","Read Pure U A",CAR,HAPPY,Study2,U,107,91,Test,User,-,,Recall,Recall2,9563,drive,0,7599,8503,0,0,,1
w10107067,c5rue8tcx3,Nick_Dissertation_EX2_EP,1,158,2022-05-03T20:07:54+00:00,12.239509105682,5,Pure_Unrelated.csv,READVersionA.csv,"Read Pure U A","Read Pure U A",JUSTICE,MAROON,Study1,U,6,23,Test,User,-,,Recall,Recall2,11814,peace,18.181818181818,8317,10448,0,0,,1
w10107067,c5rue8tcx3,Nick_Dissertation_EX2_EP,1,159,2022-05-03T20:07:58+00:00,3.7823867797852,5,Pure_Unrelated.csv,READVersionA.csv,"Read Pure U A","Read Pure U A",ROAD,SCENT,Study2,U,166,94,Test,User,-,,Recall,Recall2,3694,drive,20,1872,2836,0,0,,1
w10107067,c5rue8tcx3,Nick_Dissertation_EX2_EP,1,160,2022-05-03T20:08:02+00:00,4.136146068573,5,Pure_Unrelated.csv,READVersionA.csv,"Read Pure U A","Read Pure U A",LION,ART,Study2,U,109,90,Test,User,-,,Recall,Recall2,4003,roar,57.142857142857,2017,2921,0,0,,1
w10107067,c5rue8tcx3,Nick_Dissertation_EX2_EP,1,161,2022-05-03T20:08:16+00:00,13.629622936249,5,Pure_Unrelated.csv,READVersionA.csv,"Read Pure U A","Read Pure U A",TUCK,ALLOW,Study2,U,108,74,Test,User,-,,Recall,Recall2,13502,,0,-1,-1,0,0,,1
w10107067,c5rue8tcx3,Nick_Dissertation_EX2_EP,1,162,2022-05-03T20:08:22+00:00,5.8504250049591,5,Pure_Unrelated.csv,READVersionA.csv,"Read Pure U A","Read Pure U A",HAND,FIX,Study2,U,105,69,Test,User,-,,Recall,Recall2,5730,fix,100,3738,4439,1,1,,1
w10107067,c5rue8tcx3,Nick_Dissertation_EX2_EP,1,163,2022-05-03T20:08:28+00:00,6.5226051807404,5,Pure_Unrelated.csv,READVersionA.csv,"Read Pure U A","Read Pure U A",DETECT,FREE,Study2,U,162,95,Test,User,-,,Recall,Recall2,6407,free,100,4713,5181,1,1,,1
w10107067,c5rue8tcx3,Nick_Dissertation_EX2_EP,1,164,2022-05-03T20:08:33+00:00,4.6498420238495,5,Pure_Unrelated.csv,READVersionA.csv,"Read Pure U A","Read Pure U A",PUT,ROLL,Study2,U,163,86,Test,User,-,,Recall,Recall2,4535,up,0,2975,3213,0,0,,1
w10107067,c5rue8tcx3,Nick_Dissertation_EX2_EP,1,165,2022-05-03T20:08:44+00:00,11.666163921356,5,Pure_Unrelated.csv,READVersionA.csv,"Read Pure U A","Read Pure U A",SPELL,BONE,Study2,U,174,63,Test,User,-,,Recall,Recall2,11543,curse,22.222222222222,8381,9415,0,0,,1
w10107067,c5rue8tcx3,Nick_Dissertation_EX2_EP,1,166,2022-05-03T20:08:54+00:00,9.5912308692932,5,Pure_Unrelated.csv,READVersionA.csv,"Read Pure U A","Read Pure U A",SWING,FOG,Study2,U,175,68,Test,User,-,,Recall,Recall2,9476,fog,100,8061,8605,1,1,,1
w10107067,c5rue8tcx3,Nick_Dissertation_EX2_EP,1,167,2022-05-03T20:08:59+00:00,5.1146450042725,5,Pure_Unrelated.csv,READVersionA.csv,"Read Pure U A","Read Pure U A",MUTE,WAVE,Study2,U,173,71,Test,User,-,,Recall,Recall2,5004,loud,0,1477,4061,0,0,,1
w10107067,c5rue8tcx3,Nick_Dissertation_EX2_EP,1,168,2022-05-03T20:09:10+00:00,11.2379591465,5,Pure_Unrelated.csv,READVersionA.csv,"Read Pure U A","Read Pure U A",BRONZE,ARTERY,Study2,U,104,66,Test,User,-,,Recall,Recall2,11112,silver,33.333333333333,7978,9101,0,0,,1
w10107067,c5rue8tcx3,Nick_Dissertation_EX2_EP,1,169,2022-05-03T20:09:24+00:00,13.606132030487,5,Pure_Unrelated.csv,READVersionA.csv,"Read Pure U A","Read Pure U A",HUNGRY,PARK,Study2,U,98,96,Test,User,-,,Recall,Recall2,13474,eat,28.571428571429,11280,12298,0,0,,1
w10107067,c5rue8tcx3,Nick_Dissertation_EX2_EP,1,170,2022-05-03T20:09:31+00:00,7.1258709430695,5,Pure_Unrelated.csv,READVersionA.csv,"Read Pure U A","Read Pure U A",SMOOTH,OMIT,Study2,U,157,59,Test,User,-,,Recall,Recall2,6996,omit,100,5276,5929,1,1,,1
w10107067,c5rue8tcx3,Nick_Dissertation_EX2_EP,1,171,2022-05-03T20:09:39+00:00,7.8186779022217,5,Pure_Unrelated.csv,READVersionA.csv,"Read Pure U A","Read Pure U A",RIDDLE,SUGAR,Study2,U,111,92,Test,User,-,,Recall,Recall2,7675,rhyme,20,3021,5774,0,0,,1
w10107067,c5rue8tcx3,Nick_Dissertation_EX2_EP,1,172,2022-05-03T20:09:51+00:00,11.631282091141,5,Pure_Unrelated.csv,READVersionA.csv,"Read Pure U A","Read Pure U A",SICK,HIDE,Study2,U,114,64,Test,User,-,,Recall,Recall2,11493,doctor,20,9209,10591,0,0,,1
w10107067,c5rue8tcx3,Nick_Dissertation_EX2_EP,1,173,2022-05-03T20:09:55+00:00,3.9961740970612,5,Pure_Unrelated.csv,READVersionA.csv,"Read Pure U A","Read Pure U A",DESIRE,NOISE,Study2,U,169,87,Test,User,-,,Recall,Recall2,3918,want,22.222222222222,2001,2959,0,0,,1
w10107067,c5rue8tcx3,Nick_Dissertation_EX2_EP,1,174,2022-05-03T20:09:59+00:00,4.9058058261871,5,Pure_Unrelated.csv,READVersionA.csv,"Read Pure U A","Read Pure U A",FLOAT,HARMONY,Study2,U,161,75,Test,User,-,,Recall,Recall2,4797,water,33.333333333333,2411,4226,0,0,,1
w10107067,c5rue8tcx3,Nick_Dissertation_EX2_EP,1,175,2022-05-03T20:10:03+00:00,3.678946018219,5,Pure_Unrelated.csv,READVersionA.csv,"Read Pure U A","Read Pure U A",POSITION,MACHINE,Study2,U,106,73,Test,User,-,,Recall,Recall2,3595,role,18.181818181818,1615,2353,0,0,,1
w10107067,c5rue8tcx3,Nick_Dissertation_EX2_EP,1,176,2022-05-03T20:10:17+00:00,13.901184082031,5,Pure_Unrelated.csv,READVersionA.csv,"Read Pure U A","Read Pure U A",SYSTEM,LICK,Study2,U,167,78,Test,User,-,,Recall,Recall2,13752,lick,100,5117,7616,1,1,,1
w10107067,c5rue8tcx3,Nick_Dissertation_EX2_EP,1,177,2022-05-03T20:10:23+00:00,5.5349788665771,5,Pure_Unrelated.csv,READVersionA.csv,"Read Pure U A","Read Pure U A",LAKE,OPINION,Study2,U,160,72,Test,User,-,,Recall,Recall2,5374,water,0,3024,4110,0,0,,1
w10107067,c5rue8tcx3,Nick_Dissertation_EX2_EP,1,178,2022-05-03T20:10:35+00:00,12.161567211151,5,Pure_Unrelated.csv,READVersionA.csv,"Read Pure U A","Read Pure U A",WOMAN,LIFT,Study2,U,99,88,Test,User,-,,Recall,Recall2,12029,period,20,9161,10880,0,0,,1
w10107067,c5rue8tcx3,Nick_Dissertation_EX2_EP,1,179,2022-05-03T20:10:49+00:00,14.431988954544,5,Pure_Unrelated.csv,READVersionA.csv,"Read Pure U A","Read Pure U A",ADD,VALLEY,Study2,U,112,80,Test,User,-,,Recall,Recall2,14303,valley,100,1420,13490,1,1,,1
w10107067,c5rue8tcx3,Nick_Dissertation_EX2_EP,1,180,2022-05-03T20:10:58+00:00,9.2642889022827,5,Pure_Unrelated.csv,READVersionA.csv,"Read Pure U A","Read Pure U A",FLOOR,DISCOVER,Study2,U,101,67,Test,User,-,,Recall,Recall2,9134,discover,100,5958,7692,1,1,,1
w10107067,c5rue8tcx3,Nick_Dissertation_EX2_EP,1,181,2022-05-03T20:11:03+00:00,4.2401540279388,5,Pure_Unrelated.csv,READVersionA.csv,"Read Pure U A","Read Pure U A",WOULD,CASH,Study2,U,113,60,Test,User,-,,Recall,Recall2,4086,cash,100,2625,3258,1,1,,1
w10107067,c5rue8tcx3,Nick_Dissertation_EX2_EP,1,182,2022-05-03T20:11:16+00:00,13.044465065002,5,Pure_Unrelated.csv,READVersionA.csv,"Read Pure U A","Read Pure U A",ZOO,THUMB,Study2,U,168,61,Test,User,-,,Recall,Recall2,12908,keeper,0,7173,11731,0,0,,1
w10107067,c5rue8tcx3,Nick_Dissertation_EX2_EP,1,183,2022-05-03T20:11:25+00:00,9.4956519603729,5,Pure_Unrelated.csv,READVersionA.csv,"Read Pure U A","Read Pure U A",BELT,SOON,Study2,U,100,93,Test,User,-,,Recall,Recall2,9354,soon,100,7761,8430,1,1,,1
w10107067,c5rue8tcx3,Nick_Dissertation_EX2_EP,1,184,2022-05-03T20:11:37+00:00,11.751520872116,5,Pure_Unrelated.csv,READVersionA.csv,"Read Pure U A","Read Pure U A",SLIM,KNOW,Study2,U,164,81,Test,User,-,,Recall,Recall2,11625,eat,0,10288,10696,0,0,,1
w10107067,c5rue8tcx3,Nick_Dissertation_EX2_EP,1,185,2022-05-03T20:11:49+00:00,12.205179214478,5,Pure_Unrelated.csv,READVersionA.csv,"Read Pure U A","Read Pure U A",VASE,KING,Study2,U,115,89,Test,User,-,,Recall,Recall2,12085,flowers,0,8904,10812,0,0,,1
w10107067,c5rue8tcx3,Nick_Dissertation_EX2_EP,1,186,2022-05-03T20:11:53+00:00,3.3540649414062,5,Pure_Unrelated.csv,READVersionA.csv,"Read Pure U A","Read Pure U A",GUARD,WHEEL,Study2,U,170,79,Test,User,-,,Recall,Recall2,3268,dog,0,1690,2401,0,0,,1
w10107067,c5rue8tcx3,Nick_Dissertation_EX2_EP,1,187,2022-05-03T20:12:01+00:00,8.9409849643707,5,Pure_Unrelated.csv,READVersionA.csv,"Read Pure U A","Read Pure U A",ACCIDENT,STRONG,Study2,U,110,85,Test,User,-,,Recall,Recall2,8833,strong,100,6789,8059,1,1,,1
w10107067,c5rue8tcx3,Nick_Dissertation_EX2_EP,1,188,2022-05-03T20:12:14+00:00,12.396183013916,5,Pure_Unrelated.csv,READVersionA.csv,"Read Pure U A","Read Pure U A",WASTE,SEDATE,Study2,U,165,84,Test,User,-,,Recall,Recall2,12275,trash,18.181818181818,9017,11169,0,0,,1
w10107067,c5rue8tcx3,Nick_Dissertation_EX2_EP,1,189,2022-05-03T20:12:16+00:00,1.884644985199,5,Pure_Unrelated.csv,READVersionA.csv,"Read Pure U A","Read Pure U A",,,,,,0,Instruct,User,-,"You have completed this section. Please press Enter.",,Instruct7,1805,,,-1,-1,,,,1
w10107067,c5rue8tcx3,Nick_Dissertation_EX2_EP,1,190,2022-05-03T20:12:19+00:00,3.2300620079041,5,Pure_Unrelated.csv,READVersionA.csv,"Read Pure U A","Read Pure U A",,,,,,0,Instruct,User,-,"The following screen will ask you a few questions abour your experience today. You must complete these questions to receive credit.",,Instruct8,3160,,,-1,-1,,,,1
