Username,ID,ExperimentName,Session,Trial,Date,TimeDif,"Condition Number","Stimuli File","Order File","Condition Description","Condition Notes",Stimuli*Cue,Stimuli*Answer,Stimuli*Shuffle,"Stimuli*Stimuli Notes",Stimuli*Value,Procedure*Item,"Procedure*Trial Type","Procedure*Max Time","Procedure*Min Time",Procedure*Text,"Procedure*Procedure Notes",Procedure*Shuffle,"Procedure*Post 1 Item","Procedure*Post 1 Trial Type","Procedure*Post 1 Max Time","Procedure*Post 1 Min Time",Procedure*,"Procedure*Post 1 Text",Response*RT,Response*Response,Response*Accuracy,Response*RTfirst,Response*RTlast,Response*strictAcc,Response*lenientAcc,Response*focus,Response*post1_JOL,Response*post1_RT,Response*post1_RTfirst,Response*post1_RTlast,Response*Focus,Response*post1_Focus
w10107542,js50arhd63,Nick_Dissertation_EX2_EP,1,1,2022-04-26T18:21:18+00:00,7.9454729557037,8,Mixed_Stim.csv,FREQVersionB.csv,"Freq Mixed B","Freq Mixed B",,,,,,0,Instruct,-,5,"In this section, you will be presented with a series of word pairs.",Initial_Instruct,Instruct1,,No,,,,,7413,,,-1,-1,,,,,,,,1
w10107542,js50arhd63,Nick_Dissertation_EX2_EP,1,2,2022-04-26T18:21:47+00:00,29.532793998718,8,Mixed_Stim.csv,FREQVersionB.csv,"Freq Mixed B","Freq Mixed B",,,,,,0,Instruct,-,5,"As you study, you will be asked to rate how often the words in each pair are used together, using a 0-100 scale.",,Instruct13,,No,,,,,28838,,,-1,-1,,,,,,,,1
w10107542,js50arhd63,Nick_Dissertation_EX2_EP,1,3,2022-04-26T18:21:59+00:00,11.842073917389,8,Mixed_Stim.csv,FREQVersionB.csv,"Freq Mixed B","Freq Mixed B",,,,,,0,Instruct,-,10,"For example, if you are given the pair CAT - DOG, a rating of 0 indicates that the words DOG and CAT are not used together often in language, while a rating of 100 indicates that DOG and CAT are commonly used together.",,Instruct14,,No,,,,,11058,,,-1,-1,,,,,,,,1
w10107542,js50arhd63,Nick_Dissertation_EX2_EP,1,4,2022-04-26T18:22:33+00:00,33.875534057617,8,Mixed_Stim.csv,FREQVersionB.csv,"Freq Mixed B","Freq Mixed B",,,,,,0,Instruct,-,15,"When making your ratings, it is criticial that you use the full range of the scale. You will be disqualified for only giving ratings of 0 or 100! Each word will be displayed on the computer screen for 4 seconds. You will then have 4 seconds to make your rating. The screen will automatically move to the next pair when time is up.",,Instruct15,,No,,,,,33214,,,-1,-1,,,,,,,,1
w10107542,js50arhd63,Nick_Dissertation_EX2_EP,1,5,2022-04-26T18:22:38+00:00,5.1914720535278,8,Mixed_Stim.csv,FREQVersionB.csv,"Freq Mixed B","Freq Mixed B",,,,,,0,Instruct,User,-,"You will now begin the study. Press Enter when you are ready to begin.",,Instruct16,,No,,,,,4467,,,-1,-1,,,,,,,,1
w10107542,js50arhd63,Nick_Dissertation_EX2_EP,1,6,2022-04-26T18:22:48+00:00,10.327993869781,8,Mixed_Stim.csv,FREQVersionB.csv,"Freq Mixed B","Freq Mixed B",NOODLE,STRING,BUFFER3,Buffer,92,56,Study,4,4,,Study/JOL,BUFFER,56,FREQ,5,5,,"How often are these two words used together?|Type your response on a scale from 0-100 and then press Enter.",4002,,,-1,-1,,,,,5002,-1,-1,1,1
w10107542,js50arhd63,Nick_Dissertation_EX2_EP,1,7,2022-04-26T18:22:59+00:00,10.350198030472,8,Mixed_Stim.csv,FREQVersionB.csv,"Freq Mixed B","Freq Mixed B",ICE,FROZEN,BUFFER3,Buffer,94,55,Study,4,4,,Study/JOL,BUFFER,55,FREQ,5,5,,"How often are these two words used together?|Type your response on a scale from 0-100 and then press Enter.",4001,,,-1,-1,,,,10,5002,3949,4181,1,1
w10107542,js50arhd63,Nick_Dissertation_EX2_EP,1,8,2022-04-26T18:23:09+00:00,10.325207948685,8,Mixed_Stim.csv,FREQVersionB.csv,"Freq Mixed B","Freq Mixed B",CAMP,ADVENTURE,BUFFER3,Buffer,95,53,Study,4,4,,Study/JOL,BUFFER,53,FREQ,5,5,,"How often are these two words used together?|Type your response on a scale from 0-100 and then press Enter.",4002,,,-1,-1,,,,,5002,-1,-1,1,0.654
w10107542,js50arhd63,Nick_Dissertation_EX2_EP,1,9,2022-04-26T18:23:19+00:00,10.386240005493,8,Mixed_Stim.csv,FREQVersionB.csv,"Freq Mixed B","Freq Mixed B",CARROT,POTATO,BUFFER3,Buffer,91,54,Study,4,4,,Study/JOL,BUFFER,54,FREQ,5,5,,"How often are these two words used together?|Type your response on a scale from 0-100 and then press Enter.",4001,,,-1,-1,,,,100,5003,2348,2729,1,1
w10107542,js50arhd63,Nick_Dissertation_EX2_EP,1,10,2022-04-26T18:23:30+00:00,10.409989118576,8,Mixed_Stim.csv,FREQVersionB.csv,"Freq Mixed B","Freq Mixed B",SHRIMP,FISH,BUFFER3,Buffer,93,52,Study,4,4,,Study/JOL,BUFFER,52,FREQ,5,5,,"How often are these two words used together?|Type your response on a scale from 0-100 and then press Enter.",4001,,,-1,-1,,,,90,5003,2203,2414,1,1
w10107542,js50arhd63,Nick_Dissertation_EX2_EP,1,11,2022-04-26T18:23:40+00:00,10.418303966522,8,Mixed_Stim.csv,FREQVersionB.csv,"Freq Mixed B","Freq Mixed B",TEMPERATURE,Morning,Study2,U,173,90,Study,4,4,,Study/JOL,"Study Phase",90,FREQ,5,5,,"How often are these two words used together?|Type your response on a scale from 0-100 and then press Enter.",4002,,,-1,-1,,,,50,5002,2527,2894,1,1
w10107542,js50arhd63,Nick_Dissertation_EX2_EP,1,12,2022-04-26T18:23:51+00:00,10.358219861984,8,Mixed_Stim.csv,FREQVersionB.csv,"Freq Mixed B","Freq Mixed B",CHERRY,RED,Study2,F,104,74,Study,4,4,,Study/JOL,"Study Phase",74,FREQ,5,5,,"How often are these two words used together?|Type your response on a scale from 0-100 and then press Enter.",4002,,,-1,-1,,,,100,5002,2054,2383,1,1
w10107542,js50arhd63,Nick_Dissertation_EX2_EP,1,13,2022-04-26T18:24:01+00:00,10.409690141678,8,Mixed_Stim.csv,FREQVersionB.csv,"Freq Mixed B","Freq Mixed B",DRIVER,CAR,Study2,F,106,69,Study,4,4,,Study/JOL,"Study Phase",69,FREQ,5,5,,"How often are these two words used together?|Type your response on a scale from 0-100 and then press Enter.",4002,,,-1,-1,,,,90,5003,2015,2265,1,1
w10107542,js50arhd63,Nick_Dissertation_EX2_EP,1,14,2022-04-26T18:24:11+00:00,10.35130405426,8,Mixed_Stim.csv,FREQVersionB.csv,"Freq Mixed B","Freq Mixed B",FUZZY,BANG,Study2,U,168,89,Study,4,4,,Study/JOL,"Study Phase",89,FREQ,5,5,,"How often are these two words used together?|Type your response on a scale from 0-100 and then press Enter.",4002,,,-1,-1,,,,25,5002,1972,2471,1,1
w10107542,js50arhd63,Nick_Dissertation_EX2_EP,1,15,2022-04-26T18:24:22+00:00,10.480673789978,8,Mixed_Stim.csv,FREQVersionB.csv,"Freq Mixed B","Freq Mixed B",SHEARS,SCISSORS,Study2,F,112,80,Study,4,4,,Study/JOL,"Study Phase",80,FREQ,5,5,,"How often are these two words used together?|Type your response on a scale from 0-100 and then press Enter.",4002,,,-1,-1,,,,100,5002,1906,2255,1,1
w10107542,js50arhd63,Nick_Dissertation_EX2_EP,1,16,2022-04-26T18:24:32+00:00,10.442863225937,8,Mixed_Stim.csv,FREQVersionB.csv,"Freq Mixed B","Freq Mixed B",CAKE,CLOTHES,Study2,U,166,93,Study,4,4,,Study/JOL,"Study Phase",93,FREQ,5,5,,"How often are these two words used together?|Type your response on a scale from 0-100 and then press Enter.",4002,,,-1,-1,,,,10,5003,2084,2179,1,1
w10107542,js50arhd63,Nick_Dissertation_EX2_EP,1,17,2022-04-26T18:24:43+00:00,10.350804805756,8,Mixed_Stim.csv,FREQVersionB.csv,"Freq Mixed B","Freq Mixed B",VEHICLE,CHARM,Study2,U,160,71,Study,4,4,,Study/JOL,"Study Phase",71,FREQ,5,5,,"How often are these two words used together?|Type your response on a scale from 0-100 and then press Enter.",4001,,,-1,-1,,,,0,5003,2271,2271,1,1
w10107542,js50arhd63,Nick_Dissertation_EX2_EP,1,18,2022-04-26T18:24:53+00:00,10.385311126709,8,Mixed_Stim.csv,FREQVersionB.csv,"Freq Mixed B","Freq Mixed B",EXTENSION,LONG,Study2,F,96,94,Study,4,4,,Study/JOL,"Study Phase",94,FREQ,5,5,,"How often are these two words used together?|Type your response on a scale from 0-100 and then press Enter.",4002,,,-1,-1,,,,100,5002,2161,2763,1,1
w10107542,js50arhd63,Nick_Dissertation_EX2_EP,1,19,2022-04-26T18:25:03+00:00,10.303196907043,8,Mixed_Stim.csv,FREQVersionB.csv,"Freq Mixed B","Freq Mixed B",CRACKLE,ABLE,Study2,U,162,66,Study,4,4,,Study/JOL,"Study Phase",66,FREQ,5,5,,"How often are these two words used together?|Type your response on a scale from 0-100 and then press Enter.",4002,,,-1,-1,,,,0,5002,2447,2448,1,1
w10107542,js50arhd63,Nick_Dissertation_EX2_EP,1,20,2022-04-26T18:25:14+00:00,10.413829088211,8,Mixed_Stim.csv,FREQVersionB.csv,"Freq Mixed B","Freq Mixed B",FEUD,FIGHT,Study2,F,113,78,Study,4,4,,Study/JOL,"Study Phase",78,FREQ,5,5,,"How often are these two words used together?|Type your response on a scale from 0-100 and then press Enter.",4002,,,-1,-1,,,,25,5003,2883,3486,1,1
w10107542,js50arhd63,Nick_Dissertation_EX2_EP,1,21,2022-04-26T18:25:24+00:00,10.443562984467,8,Mixed_Stim.csv,FREQVersionB.csv,"Freq Mixed B","Freq Mixed B",LEASE,TOIL,Study2,U,170,88,Study,4,4,,Study/JOL,"Study Phase",88,FREQ,5,5,,"How often are these two words used together?|Type your response on a scale from 0-100 and then press Enter.",4003,,,-1,-1,,,,50,5001,3817,4186,1,1
w10107542,js50arhd63,Nick_Dissertation_EX2_EP,1,22,2022-04-26T18:25:35+00:00,10.375818967819,8,Mixed_Stim.csv,FREQVersionB.csv,"Freq Mixed B","Freq Mixed B",CACTUS,PLANT,Study2,F,98,81,Study,4,4,,Study/JOL,"Study Phase",81,FREQ,5,5,,"How often are these two words used together?|Type your response on a scale from 0-100 and then press Enter.",4002,,,-1,-1,,,,100,5001,2880,3398,1,1
w10107542,js50arhd63,Nick_Dissertation_EX2_EP,1,23,2022-04-26T18:25:45+00:00,10.272910118103,8,Mixed_Stim.csv,FREQVersionB.csv,"Freq Mixed B","Freq Mixed B",AFFECTION,LOVE,Study2,F,115,87,Study,4,4,,Study/JOL,"Study Phase",87,FREQ,5,5,,"How often are these two words used together?|Type your response on a scale from 0-100 and then press Enter.",4002,,,-1,-1,,,,100,5002,2117,3215,1,1
w10107542,js50arhd63,Nick_Dissertation_EX2_EP,1,24,2022-04-26T18:25:55+00:00,10.325619935989,8,Mixed_Stim.csv,FREQVersionB.csv,"Freq Mixed B","Freq Mixed B",BOTH,OUNCE,Study2,U,172,77,Study,4,4,,Study/JOL,"Study Phase",77,FREQ,5,5,,"How often are these two words used together?|Type your response on a scale from 0-100 and then press Enter.",4001,,,-1,-1,,,,0,5001,2525,2526,1,1
w10107542,js50arhd63,Nick_Dissertation_EX2_EP,1,25,2022-04-26T18:26:06+00:00,10.455708026886,8,Mixed_Stim.csv,FREQVersionB.csv,"Freq Mixed B","Freq Mixed B",MEAT,OBTAIN,Study2,U,161,61,Study,4,4,,Study/JOL,"Study Phase",61,FREQ,5,5,,"How often are these two words used together?|Type your response on a scale from 0-100 and then press Enter.",4001,,,-1,-1,,,,25,5002,2257,2623,1,1
w10107542,js50arhd63,Nick_Dissertation_EX2_EP,1,26,2022-04-26T18:26:16+00:00,10.476244926453,8,Mixed_Stim.csv,FREQVersionB.csv,"Freq Mixed B","Freq Mixed B",JUSTICE,MAROON,Study2,U,156,64,Study,4,4,,Study/JOL,"Study Phase",64,FREQ,5,5,,"How often are these two words used together?|Type your response on a scale from 0-100 and then press Enter.",4003,,,-1,-1,,,,50,5002,4623,4959,1,1
w10107542,js50arhd63,Nick_Dissertation_EX2_EP,1,27,2022-04-26T18:26:27+00:00,10.42401099205,8,Mixed_Stim.csv,FREQVersionB.csv,"Freq Mixed B","Freq Mixed B",LITTER,TRASH,Study2,F,103,73,Study,4,4,,Study/JOL,"Study Phase",73,FREQ,5,5,,"How often are these two words used together?|Type your response on a scale from 0-100 and then press Enter.",4002,,,-1,-1,,,,100,5002,2205,2908,1,1
w10107542,js50arhd63,Nick_Dissertation_EX2_EP,1,28,2022-04-26T18:26:37+00:00,10.370078086853,8,Mixed_Stim.csv,FREQVersionB.csv,"Freq Mixed B","Freq Mixed B",SHOELACE,TIE,Study2,F,99,59,Study,4,4,,Study/JOL,"Study Phase",59,FREQ,5,5,,"How often are these two words used together?|Type your response on a scale from 0-100 and then press Enter.",4002,,,-1,-1,,,,100,5002,2462,3081,1,1
w10107542,js50arhd63,Nick_Dissertation_EX2_EP,1,29,2022-04-26T18:26:47+00:00,10.444164037704,8,Mixed_Stim.csv,FREQVersionB.csv,"Freq Mixed B","Freq Mixed B",DOCUMENT,PAPER,Study2,F,109,84,Study,4,4,,Study/JOL,"Study Phase",84,FREQ,5,5,,"How often are these two words used together?|Type your response on a scale from 0-100 and then press Enter.",4001,,,-1,-1,,,,100,5002,2022,2573,1,1
w10107542,js50arhd63,Nick_Dissertation_EX2_EP,1,30,2022-04-26T18:26:59+00:00,11.534002780914,8,Mixed_Stim.csv,FREQVersionB.csv,"Freq Mixed B","Freq Mixed B",CLUE,GAME,Study2,F,97,76,Study,4,4,,Study/JOL,"Study Phase",76,FREQ,5,5,,"How often are these two words used together?|Type your response on a scale from 0-100 and then press Enter.",4002,,,-1,-1,,,,75,5002,2281,4871,1,1
w10107542,js50arhd63,Nick_Dissertation_EX2_EP,1,31,2022-04-26T18:27:10+00:00,10.711765050888,8,Mixed_Stim.csv,FREQVersionB.csv,"Freq Mixed B","Freq Mixed B",MIRROR,CHILDREN,Study2,U,174,68,Study,4,4,,Study/JOL,"Study Phase",68,FREQ,5,5,,"How often are these two words used together?|Type your response on a scale from 0-100 and then press Enter.",4002,,,-1,-1,,,,,5002,-1,-1,1,1
w10107542,js50arhd63,Nick_Dissertation_EX2_EP,1,32,2022-04-26T18:27:20+00:00,10.325490951538,8,Mixed_Stim.csv,FREQVersionB.csv,"Freq Mixed B","Freq Mixed B",NAME,HATE,Study2,U,167,65,Study,4,4,,Study/JOL,"Study Phase",65,FREQ,5,5,,"How often are these two words used together?|Type your response on a scale from 0-100 and then press Enter.",4003,,,-1,-1,,,,25,5002,3552,4115,1,1
w10107542,js50arhd63,Nick_Dissertation_EX2_EP,1,33,2022-04-26T18:27:30+00:00,10.415796995163,8,Mixed_Stim.csv,FREQVersionB.csv,"Freq Mixed B","Freq Mixed B",GIVE,STEAK,Study2,U,158,86,Study,4,4,,Study/JOL,"Study Phase",86,FREQ,5,5,,"How often are these two words used together?|Type your response on a scale from 0-100 and then press Enter.",4002,,,-1,-1,,,,0,5002,2708,2708,1,1
w10107542,js50arhd63,Nick_Dissertation_EX2_EP,1,34,2022-04-26T18:27:41+00:00,10.478876113892,8,Mixed_Stim.csv,FREQVersionB.csv,"Freq Mixed B","Freq Mixed B",DELINQUENT,BAD,Study1,F,6,23,Study,4,4,,Study/JOL,"Study Phase",23,FREQ,5,5,,"How often are these two words used together?|Type your response on a scale from 0-100 and then press Enter.",4003,,,-1,-1,,,,100,5002,2489,3175,1,0.769
w10107542,js50arhd63,Nick_Dissertation_EX2_EP,1,35,2022-04-26T18:27:51+00:00,10.439337968826,8,Mixed_Stim.csv,FREQVersionB.csv,"Freq Mixed B","Freq Mixed B",Shell,SHAKE,Study2,U,163,91,Study,4,4,,Study/JOL,"Study Phase",91,FREQ,5,5,,"How often are these two words used together?|Type your response on a scale from 0-100 and then press Enter.",4002,,,-1,-1,,,,25,5001,2602,3188,0,1
w10107542,js50arhd63,Nick_Dissertation_EX2_EP,1,36,2022-04-26T18:28:02+00:00,10.321491003036,8,Mixed_Stim.csv,FREQVersionB.csv,"Freq Mixed B","Freq Mixed B",SHOELACE,TIE,Study2,F,99,59,Study,4,4,,Study/JOL,"Study Phase",59,FREQ,5,5,,"How often are these two words used together?|Type your response on a scale from 0-100 and then press Enter.",4002,,,-1,-1,,,,100,5002,2235,2872,1,1
w10107542,js50arhd63,Nick_Dissertation_EX2_EP,1,37,2022-04-26T18:28:12+00:00,10.391294956207,8,Mixed_Stim.csv,FREQVersionB.csv,"Freq Mixed B","Freq Mixed B",MAZE,ELECTION,Study2,U,159,67,Study,4,4,,Study/JOL,"Study Phase",67,FREQ,5,5,,"How often are these two words used together?|Type your response on a scale from 0-100 and then press Enter.",4002,,,-1,-1,,,,,5001,-1,-1,1,1
w10107542,js50arhd63,Nick_Dissertation_EX2_EP,1,38,2022-04-26T18:28:22+00:00,10.413243055344,8,Mixed_Stim.csv,FREQVersionB.csv,"Freq Mixed B","Freq Mixed B",DETECTIVE,MYSTERY,Study2,F,100,75,Study,4,4,,Study/JOL,"Study Phase",75,FREQ,5,5,,"How often are these two words used together?|Type your response on a scale from 0-100 and then press Enter.",4002,,,-1,-1,,,,100,5002,2087,2756,1,1
w10107542,js50arhd63,Nick_Dissertation_EX2_EP,1,39,2022-04-26T18:28:33+00:00,10.372427940369,8,Mixed_Stim.csv,FREQVersionB.csv,"Freq Mixed B","Freq Mixed B",LISTEN,FICTION,Study2,U,164,62,Study,4,4,,Study/JOL,"Study Phase",62,FREQ,5,5,,"How often are these two words used together?|Type your response on a scale from 0-100 and then press Enter.",4002,,,-1,-1,,,,25,5002,3179,3547,1,1
w10107542,js50arhd63,Nick_Dissertation_EX2_EP,1,40,2022-04-26T18:28:43+00:00,10.391803026199,8,Mixed_Stim.csv,FREQVersionB.csv,"Freq Mixed B","Freq Mixed B",DINE,EAT,Study2,F,111,57,Study,4,4,,Study/JOL,"Study Phase",57,FREQ,5,5,,"How often are these two words used together?|Type your response on a scale from 0-100 and then press Enter.",4001,,,-1,-1,,,,100,5002,2044,2665,1,1
w10107542,js50arhd63,Nick_Dissertation_EX2_EP,1,41,2022-04-26T18:28:54+00:00,10.520019054413,8,Mixed_Stim.csv,FREQVersionB.csv,"Freq Mixed B","Freq Mixed B",INCENSE,SMELL,Study2,F,110,79,Study,4,4,,Study/JOL,"Study Phase",79,FREQ,5,5,,"How often are these two words used together?|Type your response on a scale from 0-100 and then press Enter.",4003,,,-1,-1,,,,100,5002,2113,2765,1,1
w10107542,js50arhd63,Nick_Dissertation_EX2_EP,1,42,2022-04-26T18:29:04+00:00,10.480068922043,8,Mixed_Stim.csv,FREQVersionB.csv,"Freq Mixed B","Freq Mixed B",FURRY,DOG,Study2,F,102,63,Study,4,4,,Study/JOL,"Study Phase",63,FREQ,5,5,,"How often are these two words used together?|Type your response on a scale from 0-100 and then press Enter.",4003,,,-1,-1,,,,75,5002,2274,2542,1,1
w10107542,js50arhd63,Nick_Dissertation_EX2_EP,1,43,2022-04-26T18:29:15+00:00,10.370450019836,8,Mixed_Stim.csv,FREQVersionB.csv,"Freq Mixed B","Freq Mixed B",CHOP,CUT,Study2,F,107,72,Study,4,4,,Study/JOL,"Study Phase",72,FREQ,5,5,,"How often are these two words used together?|Type your response on a scale from 0-100 and then press Enter.",4002,,,-1,-1,,,,100,5002,2257,2876,1,1
w10107542,js50arhd63,Nick_Dissertation_EX2_EP,1,44,2022-04-26T18:29:25+00:00,10.377362012863,8,Mixed_Stim.csv,FREQVersionB.csv,"Freq Mixed B","Freq Mixed B",MAIN,SCAR,Study2,U,175,95,Study,4,4,,Study/JOL,"Study Phase",95,FREQ,5,5,,"How often are these two words used together?|Type your response on a scale from 0-100 and then press Enter.",4002,,,-1,-1,,,,25,5002,2379,2882,1,1
w10107542,js50arhd63,Nick_Dissertation_EX2_EP,1,45,2022-04-26T18:29:35+00:00,10.391680955887,8,Mixed_Stim.csv,FREQVersionB.csv,"Freq Mixed B","Freq Mixed B",KEYS,JOKE,Study2,U,165,96,Study,4,4,,Study/JOL,"Study Phase",96,FREQ,5,5,,"How often are these two words used together?|Type your response on a scale from 0-100 and then press Enter.",4002,,,-1,-1,,,,0,5002,2192,2193,1,1
w10107542,js50arhd63,Nick_Dissertation_EX2_EP,1,46,2022-04-26T18:29:46+00:00,10.374410152435,8,Mixed_Stim.csv,FREQVersionB.csv,"Freq Mixed B","Freq Mixed B",LOAN,SIGN,Study2,U,171,85,Study,4,4,,Study/JOL,"Study Phase",85,FREQ,5,5,,"How often are these two words used together?|Type your response on a scale from 0-100 and then press Enter.",4002,,,-1,-1,,,,50,5002,2313,2681,1,1
w10107542,js50arhd63,Nick_Dissertation_EX2_EP,1,47,2022-04-26T18:29:56+00:00,10.386875867844,8,Mixed_Stim.csv,FREQVersionB.csv,"Freq Mixed B","Freq Mixed B",SCALP,HEAD,Study2,F,105,70,Study,4,4,,Study/JOL,"Study Phase",70,FREQ,5,5,,"How often are these two words used together?|Type your response on a scale from 0-100 and then press Enter.",4001,,,-1,-1,,,,100,5004,2129,2816,1,1
w10107542,js50arhd63,Nick_Dissertation_EX2_EP,1,48,2022-04-26T18:30:06+00:00,10.371052026749,8,Mixed_Stim.csv,FREQVersionB.csv,"Freq Mixed B","Freq Mixed B",STRETCH,CLOTH,Study2,U,157,92,Study,4,4,,Study/JOL,"Study Phase",92,FREQ,5,5,,"How often are these two words used together?|Type your response on a scale from 0-100 and then press Enter.",4004,,,-1,-1,,,,,5003,-1,-1,1,1
w10107542,js50arhd63,Nick_Dissertation_EX2_EP,1,49,2022-04-26T18:30:18+00:00,11.712312936783,8,Mixed_Stim.csv,FREQVersionB.csv,"Freq Mixed B","Freq Mixed B",MOAT,CLEAR,Study2,U,169,60,Study,4,4,,Study/JOL,"Study Phase",60,FREQ,5,5,,"How often are these two words used together?|Type your response on a scale from 0-100 and then press Enter.",4002,,,-1,-1,,,,25,5002,2849,3458,1,1
w10107542,js50arhd63,Nick_Dissertation_EX2_EP,1,50,2022-04-26T18:30:29+00:00,10.378898143768,8,Mixed_Stim.csv,FREQVersionB.csv,"Freq Mixed B","Freq Mixed B",CHILL,COLD,Study2,F,114,82,Study,4,4,,Study/JOL,"Study Phase",82,FREQ,5,5,,"How often are these two words used together?|Type your response on a scale from 0-100 and then press Enter.",4003,,,-1,-1,,,,100,5002,2407,3128,1,1
w10107542,js50arhd63,Nick_Dissertation_EX2_EP,1,51,2022-04-26T18:30:39+00:00,10.372709989548,8,Mixed_Stim.csv,FREQVersionB.csv,"Freq Mixed B","Freq Mixed B",TOOL,SHED,BUFFER4,Buffer,178,101,Study,4,4,,Study/JOL,BUFFER2,101,FREQ,5,5,,"How often are these two words used together?|Type your response on a scale from 0-100 and then press Enter.",4003,,,-1,-1,,,,,5002,-1,-1,1,1
w10107542,js50arhd63,Nick_Dissertation_EX2_EP,1,52,2022-04-26T18:30:49+00:00,10.313587903976,8,Mixed_Stim.csv,FREQVersionB.csv,"Freq Mixed B","Freq Mixed B",MONTH,YEAR,BUFFER4,Buffer,177,99,Study,4,4,,Study/JOL,BUFFER2,99,FREQ,5,5,,"How often are these two words used together?|Type your response on a scale from 0-100 and then press Enter.",4002,,,-1,-1,,,,100,5002,2352,3170,1,1
w10107542,js50arhd63,Nick_Dissertation_EX2_EP,1,53,2022-04-26T18:31:00+00:00,10.470520973206,8,Mixed_Stim.csv,FREQVersionB.csv,"Freq Mixed B","Freq Mixed B",SPRING,MARCH,BUFFER4,Buffer,179,98,Study,4,4,,Study/JOL,BUFFER2,98,FREQ,5,5,,"How often are these two words used together?|Type your response on a scale from 0-100 and then press Enter.",4002,,,-1,-1,,,,100,5002,2879,3497,1,1
w10107542,js50arhd63,Nick_Dissertation_EX2_EP,1,54,2022-04-26T18:31:10+00:00,10.361406087875,8,Mixed_Stim.csv,FREQVersionB.csv,"Freq Mixed B","Freq Mixed B",DAYS,WEAKS,BUFFER4,Buffer,176,100,Study,4,4,,Study/JOL,BUFFER2,100,FREQ,5,5,,"How often are these two words used together?|Type your response on a scale from 0-100 and then press Enter.",4002,,,-1,-1,,,,100,5002,2461,3194,1,1
w10107542,js50arhd63,Nick_Dissertation_EX2_EP,1,55,2022-04-26T18:31:22+00:00,11.838125944138,8,Mixed_Stim.csv,FREQVersionB.csv,"Freq Mixed B","Freq Mixed B",OCTOBER,SPOOKY,BUFFER4,Buffer,180,97,Study,4,4,,Study/JOL,BUFFER2,97,FREQ,5,5,,"How often are these two words used together?|Type your response on a scale from 0-100 and then press Enter.",4002,,,-1,-1,,,,100,5002,2997,3632,1,1
w10107542,js50arhd63,Nick_Dissertation_EX2_EP,1,56,2022-04-26T18:31:28+00:00,5.9911551475525,8,Mixed_Stim.csv,FREQVersionB.csv,"Freq Mixed B","Freq Mixed B",,,,,,0,Instruct,User,-,"You have completed this section. Please press Enter.",Filler_Instruction,Instruct2,0,No,,,,,5307,,,-1,-1,,,,,,,,1,
w10107542,js50arhd63,Nick_Dissertation_EX2_EP,1,57,2022-04-26T18:33:30+00:00,121.66405582428,8,Mixed_Stim.csv,FREQVersionB.csv,"Freq Mixed B","Freq Mixed B",,,,,,0,FreeRecall,120,120,"Please list the 50 US states in alphabetical order. The task will automatically advance to the next screen after two minutes.",,Filler1,0,No,,,,,120896,"Alabama Alaska Arkansas ",0,29632,74335,0,0,,,,,,0.688,
w10107542,js50arhd63,Nick_Dissertation_EX2_EP,1,58,2022-04-26T18:33:42+00:00,12.130603075027,8,Mixed_Stim.csv,FREQVersionB.csv,"Freq Mixed B","Freq Mixed B",,,,,,0,Instruct,-,10,"You will now be presented with the first word from each of the previously studied item pairs. Please type the missing word. If you do not know the word, you may guess or press Enter to skip forward to the next pair.",,Instruct3,0,No,,,,,11197,,,-1,-1,,,,,,,,0.836,
w10107542,js50arhd63,Nick_Dissertation_EX2_EP,1,59,2022-04-26T18:33:47+00:00,5.3080010414124,8,Mixed_Stim.csv,FREQVersionB.csv,"Freq Mixed B","Freq Mixed B",SCALP,HEAD,Study2,F,105,70,Test,User,-,,Recall,Recall1,70,No,,,,,4588,Head,100,2802,3468,1,1,,,,,,1,
w10107542,js50arhd63,Nick_Dissertation_EX2_EP,1,60,2022-04-26T18:33:53+00:00,5.6467609405518,8,Mixed_Stim.csv,FREQVersionB.csv,"Freq Mixed B","Freq Mixed B",VEHICLE,CHARM,Study2,U,160,71,Test,User,-,,Recall,Recall1,71,No,,,,,4950,Driver,18.181818181818,2674,3862,0,0,,,,,,1,
w10107542,js50arhd63,Nick_Dissertation_EX2_EP,1,61,2022-04-26T18:33:58+00:00,5.2156960964203,8,Mixed_Stim.csv,FREQVersionB.csv,"Freq Mixed B","Freq Mixed B",CACTUS,PLANT,Study2,F,98,81,Test,User,-,,Recall,Recall1,81,No,,,,,4483,Plant,100,2262,3250,1,1,,,,,,1,
w10107542,js50arhd63,Nick_Dissertation_EX2_EP,1,62,2022-04-26T18:34:11+00:00,13.204903841019,8,Mixed_Stim.csv,FREQVersionB.csv,"Freq Mixed B","Freq Mixed B",BOTH,OUNCE,Study2,U,172,77,Test,User,-,,Recall,Recall1,77,No,,,,,12468,Two,25,10645,11334,0,0,,,,,,1,
w10107542,js50arhd63,Nick_Dissertation_EX2_EP,1,63,2022-04-26T18:34:23+00:00,12.374217987061,8,Mixed_Stim.csv,FREQVersionB.csv,"Freq Mixed B","Freq Mixed B",STRETCH,CLOTH,Study2,U,157,92,Test,User,-,,Recall,Recall1,92,No,,,,,11615,"Body ",22.222222222222,5203,6686,0,0,,,,,,1,
w10107542,js50arhd63,Nick_Dissertation_EX2_EP,1,64,2022-04-26T18:34:33+00:00,9.3097641468048,8,Mixed_Stim.csv,FREQVersionB.csv,"Freq Mixed B","Freq Mixed B",CAKE,CLOTHES,Study2,U,166,93,Test,User,-,,Recall,Recall1,93,No,,,,,8609,Eat,20,2779,6520,0,0,,,,,,1,
w10107542,js50arhd63,Nick_Dissertation_EX2_EP,1,65,2022-04-26T18:34:46+00:00,13.171597003937,8,Mixed_Stim.csv,FREQVersionB.csv,"Freq Mixed B","Freq Mixed B",LOAN,SIGN,Study2,U,171,85,Test,User,-,,Recall,Recall1,85,No,,,,,12151,"Sign ",100,5144,8823,1,1,,,,,,1,
w10107542,js50arhd63,Nick_Dissertation_EX2_EP,1,66,2022-04-26T18:34:56+00:00,9.953742980957,8,Mixed_Stim.csv,FREQVersionB.csv,"Freq Mixed B","Freq Mixed B",CLUE,GAME,Study2,F,97,76,Test,User,-,,Recall,Recall1,76,No,,,,,9145,Puzzle,20,6629,8024,0,0,,,,,,1,
w10107542,js50arhd63,Nick_Dissertation_EX2_EP,1,67,2022-04-26T18:35:02+00:00,5.7087249755859,8,Mixed_Stim.csv,FREQVersionB.csv,"Freq Mixed B","Freq Mixed B",INCENSE,SMELL,Study2,F,110,79,Test,User,-,,Recall,Recall1,79,No,,,,,5041,Smell,100,2756,4011,1,1,,,,,,1,
w10107542,js50arhd63,Nick_Dissertation_EX2_EP,1,68,2022-04-26T18:35:11+00:00,9.422394990921,8,Mixed_Stim.csv,FREQVersionB.csv,"Freq Mixed B","Freq Mixed B",KEYS,JOKE,Study2,U,165,96,Test,User,-,,Recall,Recall1,96,No,,,,,8689,Fun,0,6263,6656,0,0,,,,,,1,
w10107542,js50arhd63,Nick_Dissertation_EX2_EP,1,69,2022-04-26T18:35:18+00:00,7.3491699695587,8,Mixed_Stim.csv,FREQVersionB.csv,"Freq Mixed B","Freq Mixed B",CRACKLE,ABLE,Study2,U,162,66,Test,User,-,,Recall,Recall1,66,No,,,,,6616,Barre,44.444444444444,3847,5198,0,0,,,,,,1,
w10107542,js50arhd63,Nick_Dissertation_EX2_EP,1,70,2022-04-26T18:35:26+00:00,7.3208129405975,8,Mixed_Stim.csv,FREQVersionB.csv,"Freq Mixed B","Freq Mixed B",DRIVER,CAR,Study2,F,106,69,Test,User,-,,Recall,Recall1,69,No,,,,,6604,"Vehicle ",20,3469,5058,0,0,,,,,,1,
w10107542,js50arhd63,Nick_Dissertation_EX2_EP,1,71,2022-04-26T18:35:36+00:00,9.8251090049744,8,Mixed_Stim.csv,FREQVersionB.csv,"Freq Mixed B","Freq Mixed B",Shell,SHAKE,Study2,U,163,91,Test,User,-,,Recall,Recall1,91,No,,,,,9066,Fish,44.444444444444,6943,7948,0,0,,,,,,1,
w10107542,js50arhd63,Nick_Dissertation_EX2_EP,1,72,2022-04-26T18:35:46+00:00,10.912250995636,8,Mixed_Stim.csv,FREQVersionB.csv,"Freq Mixed B","Freq Mixed B",AFFECTION,LOVE,Study2,F,115,87,Test,User,-,,Recall,Recall1,87,No,,,,,10038,Love,100,7502,8171,1,1,,,,,,1,
w10107542,js50arhd63,Nick_Dissertation_EX2_EP,1,73,2022-04-26T18:35:51+00:00,4.6828060150146,8,Mixed_Stim.csv,FREQVersionB.csv,"Freq Mixed B","Freq Mixed B",CHOP,CUT,Study2,F,107,72,Test,User,-,,Recall,Recall1,72,No,,,,,4020,Cut,100,2359,2862,1,1,,,,,,1,
w10107542,js50arhd63,Nick_Dissertation_EX2_EP,1,74,2022-04-26T18:36:00+00:00,8.9694931507111,8,Mixed_Stim.csv,FREQVersionB.csv,"Freq Mixed B","Freq Mixed B",DOCUMENT,PAPER,Study2,F,109,84,Test,User,-,,Recall,Recall1,84,No,,,,,8087,Paper,100,5757,6994,1,1,,,,,,1,
w10107542,js50arhd63,Nick_Dissertation_EX2_EP,1,75,2022-04-26T18:36:05+00:00,4.888415813446,8,Mixed_Stim.csv,FREQVersionB.csv,"Freq Mixed B","Freq Mixed B",SHOELACE,TIE,Study2,F,99,59,Test,User,-,,Recall,Recall1,59,No,,,,,4189,Tie,100,2551,3139,1,1,,,,,,1,
w10107542,js50arhd63,Nick_Dissertation_EX2_EP,1,76,2022-04-26T18:36:13+00:00,8.4894301891327,8,Mixed_Stim.csv,FREQVersionB.csv,"Freq Mixed B","Freq Mixed B",SHOELACE,TIE,Study2,F,99,59,Test,User,-,,Recall,Recall1,59,No,,,,,7766,Tie,100,5735,6364,1,1,,,,,,1,
w10107542,js50arhd63,Nick_Dissertation_EX2_EP,1,77,2022-04-26T18:36:23+00:00,9.8007628917694,8,Mixed_Stim.csv,FREQVersionB.csv,"Freq Mixed B","Freq Mixed B",GIVE,STEAK,Study2,U,158,86,Test,User,-,,Recall,Recall1,86,No,,,,,8888,Take,66.666666666667,5734,6722,0,0,,,,,,1,
w10107542,js50arhd63,Nick_Dissertation_EX2_EP,1,78,2022-04-26T18:36:32+00:00,8.9300289154053,8,Mixed_Stim.csv,FREQVersionB.csv,"Freq Mixed B","Freq Mixed B",MEAT,OBTAIN,Study2,U,161,61,Test,User,-,,Recall,Recall1,61,No,,,,,8238,Loaf,40,2438,5911,0,0,,,,,,1,
w10107542,js50arhd63,Nick_Dissertation_EX2_EP,1,79,2022-04-26T18:36:43+00:00,10.678900003433,8,Mixed_Stim.csv,FREQVersionB.csv,"Freq Mixed B","Freq Mixed B",JUSTICE,MAROON,Study2,U,156,64,Test,User,-,,Recall,Recall1,64,No,,,,,9839,"Community ",26.666666666667,5160,6823,0,0,,,,,,1,
w10107542,js50arhd63,Nick_Dissertation_EX2_EP,1,80,2022-04-26T18:36:48+00:00,5.343022108078,8,Mixed_Stim.csv,FREQVersionB.csv,"Freq Mixed B","Freq Mixed B",CHERRY,RED,Study2,F,104,74,Test,User,-,,Recall,Recall1,74,No,,,,,4577,Red,100,3057,3459,1,1,,,,,,1,
w10107542,js50arhd63,Nick_Dissertation_EX2_EP,1,81,2022-04-26T18:36:59+00:00,11.294637918472,8,Mixed_Stim.csv,FREQVersionB.csv,"Freq Mixed B","Freq Mixed B",TEMPERATURE,Morning,Study2,U,173,90,Test,User,-,,Recall,Recall1,90,No,,,,,10317,"Weather ",14.285714285714,6363,9340,0,0,,,,,,1,
w10107542,js50arhd63,Nick_Dissertation_EX2_EP,1,82,2022-04-26T18:37:09+00:00,9.6265270709991,8,Mixed_Stim.csv,FREQVersionB.csv,"Freq Mixed B","Freq Mixed B",MIRROR,CHILDREN,Study2,U,174,68,Test,User,-,,Recall,Recall1,68,No,,,,,8842,"Reflection ",33.333333333333,2345,6385,0,0,,,,,,1,
w10107542,js50arhd63,Nick_Dissertation_EX2_EP,1,83,2022-04-26T18:37:19+00:00,10.039459943771,8,Mixed_Stim.csv,FREQVersionB.csv,"Freq Mixed B","Freq Mixed B",CHILL,COLD,Study2,F,114,82,Test,User,-,,Recall,Recall1,82,No,,,,,9286,Cold,100,6133,8179,1,1,,,,,,1,
w10107542,js50arhd63,Nick_Dissertation_EX2_EP,1,84,2022-04-26T18:37:32+00:00,12.444347143173,8,Mixed_Stim.csv,FREQVersionB.csv,"Freq Mixed B","Freq Mixed B",LISTEN,FICTION,Study2,U,164,62,Test,User,-,,Recall,Recall1,62,No,,,,,11571,Hear,0,9575,10325,0,0,,,,,,1,
w10107542,js50arhd63,Nick_Dissertation_EX2_EP,1,85,2022-04-26T18:37:40+00:00,8.5690038204193,8,Mixed_Stim.csv,FREQVersionB.csv,"Freq Mixed B","Freq Mixed B",LEASE,TOIL,Study2,U,170,88,Test,User,-,,Recall,Recall1,88,No,,,,,7854,"Apartment ",15.384615384615,4244,6065,0,0,,,,,,1,
w10107542,js50arhd63,Nick_Dissertation_EX2_EP,1,86,2022-04-26T18:37:53+00:00,12.376674175262,8,Mixed_Stim.csv,FREQVersionB.csv,"Freq Mixed B","Freq Mixed B",DELINQUENT,BAD,Study1,F,6,23,Test,User,-,,Recall,Recall1,23,No,,,,,11697,Disobedient,14.285714285714,6646,10568,0,0,,,,,,1,
w10107542,js50arhd63,Nick_Dissertation_EX2_EP,1,87,2022-04-26T18:38:00+00:00,7.0295178890228,8,Mixed_Stim.csv,FREQVersionB.csv,"Freq Mixed B","Freq Mixed B",MAZE,ELECTION,Study2,U,159,67,Test,User,-,,Recall,Recall1,67,No,,,,,6247,Puzzle,28.571428571429,3559,5263,0,0,,,,,,1,
w10107542,js50arhd63,Nick_Dissertation_EX2_EP,1,88,2022-04-26T18:38:09+00:00,9.3403930664062,8,Mixed_Stim.csv,FREQVersionB.csv,"Freq Mixed B","Freq Mixed B",DETECTIVE,MYSTERY,Study2,F,100,75,Test,User,-,,Recall,Recall1,75,No,,,,,8669,"Mystery ",100,3310,3931,1,1,,,,,,1,
w10107542,js50arhd63,Nick_Dissertation_EX2_EP,1,89,2022-04-26T18:38:18+00:00,9.3412110805511,8,Mixed_Stim.csv,FREQVersionB.csv,"Freq Mixed B","Freq Mixed B",NAME,HATE,Study2,U,167,65,Test,User,-,,Recall,Recall1,65,No,,,,,8274,"Government ",14.285714285714,5051,6426,0,0,,,,,,1,
w10107542,js50arhd63,Nick_Dissertation_EX2_EP,1,90,2022-04-26T18:38:31+00:00,12.908368825912,8,Mixed_Stim.csv,FREQVersionB.csv,"Freq Mixed B","Freq Mixed B",FEUD,FIGHT,Study2,F,113,78,Test,User,-,,Recall,Recall1,78,No,,,,,12143,"Psychology ",13.333333333333,8985,9875,0,0,,,,,,1,
w10107542,js50arhd63,Nick_Dissertation_EX2_EP,1,91,2022-04-26T18:38:47+00:00,15.334879159927,8,Mixed_Stim.csv,FREQVersionB.csv,"Freq Mixed B","Freq Mixed B",MOAT,CLEAR,Study2,U,169,60,Test,User,-,,Recall,Recall1,60,No,,,,,12767,Art,50,4805,11796,0,0,,,,,,1,
w10107542,js50arhd63,Nick_Dissertation_EX2_EP,1,92,2022-04-26T18:39:01+00:00,14.842929840088,8,Mixed_Stim.csv,FREQVersionB.csv,"Freq Mixed B","Freq Mixed B",FURRY,DOG,Study2,F,102,63,Test,User,-,,Recall,Recall1,63,No,,,,,14000,Dig,66.666666666667,12524,13043,0,0,,,,,,1,
w10107542,js50arhd63,Nick_Dissertation_EX2_EP,1,93,2022-04-26T18:39:07+00:00,5.2288701534271,8,Mixed_Stim.csv,FREQVersionB.csv,"Freq Mixed B","Freq Mixed B",MAIN,SCAR,Study2,U,175,95,Test,User,-,,Recall,Recall1,95,No,,,,,4509,Side,25,2421,3494,0,0,,,,,,1,
w10107542,js50arhd63,Nick_Dissertation_EX2_EP,1,94,2022-04-26T18:39:11+00:00,4.4815618991852,8,Mixed_Stim.csv,FREQVersionB.csv,"Freq Mixed B","Freq Mixed B",EXTENSION,LONG,Study2,F,96,94,Test,User,-,,Recall,Recall1,94,No,,,,,3788,Long,100,2214,2770,1,1,,,,,,1,
w10107542,js50arhd63,Nick_Dissertation_EX2_EP,1,95,2022-04-26T18:39:23+00:00,11.789550065994,8,Mixed_Stim.csv,FREQVersionB.csv,"Freq Mixed B","Freq Mixed B",FUZZY,BANG,Study2,U,168,89,Test,User,-,,Recall,Recall1,89,No,,,,,11060,Dog,28.571428571429,2400,3188,0,0,,,,,,1,
w10107542,js50arhd63,Nick_Dissertation_EX2_EP,1,96,2022-04-26T18:39:35+00:00,12.458210945129,8,Mixed_Stim.csv,FREQVersionB.csv,"Freq Mixed B","Freq Mixed B",DINE,EAT,Study2,F,111,57,Test,User,-,,Recall,Recall1,57,No,,,,,11727,Dinner,22.222222222222,8849,10087,0,0,,,,,,1,
w10107542,js50arhd63,Nick_Dissertation_EX2_EP,1,97,2022-04-26T18:39:41+00:00,5.5409939289093,8,Mixed_Stim.csv,FREQVersionB.csv,"Freq Mixed B","Freq Mixed B",LITTER,TRASH,Study2,F,103,73,Test,User,-,,Recall,Recall1,73,No,,,,,4744,Trash,100,2651,3623,1,1,,,,,,1,
w10107542,js50arhd63,Nick_Dissertation_EX2_EP,1,98,2022-04-26T18:39:50+00:00,9.3369309902191,8,Mixed_Stim.csv,FREQVersionB.csv,"Freq Mixed B","Freq Mixed B",SHEARS,SCISSORS,Study2,F,112,80,Test,User,-,,Recall,Recall1,80,No,,,,,8356,Scissors,100,2244,7007,1,1,,,,,,1,
