Username,ID,ExperimentName,Session,Trial,Date,TimeDif,"Condition Number","Stimuli File","Order File","Condition Description","Condition Notes",Stimuli*Cue,Stimuli*Answer,Stimuli*Shuffle,"Stimuli*Stimuli Notes",Stimuli*Value,Procedure*Item,"Procedure*Trial Type","Procedure*Max Time","Procedure*Min Time",Procedure*Text,"Procedure*Procedure Notes",Procedure*Shuffle,Response*RT,Response*Response,Response*Accuracy,Response*RTfirst,Response*RTlast,Response*strictAcc,Response*lenientAcc,Response*focus,Response*Focus
w10063195,qbtes1qpau,Nick_Dissertation_EX2_EP,1,1,2022-04-28T19:40:55+00:00,17.775135040283,3,Pure_Forward.csv,READVersionA.csv,"Read Pure F A","Read Pure F A",,,,,,0,Instruct,-,10,"Please study each of the following word pairs. Remember that your memory will be tested! Each pair will be displayed on the computer screen and will automatically advance to the next pair. Press ENTER when you are ready to begin.",Initial_Instruct,Instruct1,17575,,,-1,-1,,,,1
w10063195,qbtes1qpau,Nick_Dissertation_EX2_EP,1,2,2022-04-28T19:41:04+00:00,8.1179869174957,3,Pure_Forward.csv,READVersionA.csv,"Read Pure F A","Read Pure F A",TREES,GREEN,BUFFER1,Buffer,1,4,STUDY,8,8,,Study/JOL,BUFFER,8002,,,-1,-1,,,,1
w10063195,qbtes1qpau,Nick_Dissertation_EX2_EP,1,3,2022-04-28T19:41:12+00:00,8.1457951068878,3,Pure_Forward.csv,READVersionA.csv,"Read Pure F A","Read Pure F A",SCARE,HIDE,BUFFER1,Buffer,4,6,STUDY,8,8,,Study/JOL,BUFFER,8003,,,-1,-1,,,,1
w10063195,qbtes1qpau,Nick_Dissertation_EX2_EP,1,4,2022-04-28T19:41:20+00:00,8.1702649593353,3,Pure_Forward.csv,READVersionA.csv,"Read Pure F A","Read Pure F A",PEANUT,BUTTER,BUFFER1,Buffer,3,2,STUDY,8,8,,Study/JOL,BUFFER,8002,,,-1,-1,,,,1
w10063195,qbtes1qpau,Nick_Dissertation_EX2_EP,1,5,2022-04-28T19:41:28+00:00,8.1578669548035,3,Pure_Forward.csv,READVersionA.csv,"Read Pure F A","Read Pure F A",SPACE,JAM,BUFFER1,Buffer,5,3,STUDY,8,8,,Study/JOL,BUFFER,8011,,,-1,-1,,,,1
w10063195,qbtes1qpau,Nick_Dissertation_EX2_EP,1,6,2022-04-28T19:41:36+00:00,8.1534249782562,3,Pure_Forward.csv,READVersionA.csv,"Read Pure F A","Read Pure F A",BASEBALL,CATCHER,BUFFER1,Buffer,2,5,STUDY,8,8,,Study/JOL,BUFFER,8006,,,-1,-1,,,,1
w10063195,qbtes1qpau,Nick_Dissertation_EX2_EP,1,7,2022-04-28T19:41:44+00:00,8.1629540920258,3,Pure_Forward.csv,READVersionA.csv,"Read Pure F A","Read Pure F A",WAGE,MONEY,Study1,F,8,10,STUDY,8,8,,Study/JOL,"Study Phase",8005,,,-1,-1,,,,1
w10063195,qbtes1qpau,Nick_Dissertation_EX2_EP,1,8,2022-04-28T19:41:52+00:00,8.171539068222,3,Pure_Forward.csv,READVersionA.csv,"Read Pure F A","Read Pure F A",SARDINE,FISH,Study1,F,80,41,STUDY,8,8,,Study/JOL,"Study Phase",8002,,,-1,-1,,,,1
w10063195,qbtes1qpau,Nick_Dissertation_EX2_EP,1,9,2022-04-28T19:42:01+00:00,8.1577188968658,3,Pure_Forward.csv,READVersionA.csv,"Read Pure F A","Read Pure F A",ROOT,PLANT,Study1,F,13,23,STUDY,8,8,,Study/JOL,"Study Phase",8013,,,-1,-1,,,,1
w10063195,qbtes1qpau,Nick_Dissertation_EX2_EP,1,10,2022-04-28T19:42:09+00:00,8.1288571357727,3,Pure_Forward.csv,READVersionA.csv,"Read Pure F A","Read Pure F A",LEAGUE,BASEBALL,Study1,F,81,19,STUDY,8,8,,Study/JOL,"Study Phase",8003,,,-1,-1,,,,1
w10063195,qbtes1qpau,Nick_Dissertation_EX2_EP,1,11,2022-04-28T19:42:17+00:00,8.1386158466339,3,Pure_Forward.csv,READVersionA.csv,"Read Pure F A","Read Pure F A",THIMBLE,THREAD,Study1,F,71,43,STUDY,8,8,,Study/JOL,"Study Phase",8003,,,-1,-1,,,,1
w10063195,qbtes1qpau,Nick_Dissertation_EX2_EP,1,12,2022-04-28T19:42:25+00:00,8.1936531066895,3,Pure_Forward.csv,READVersionA.csv,"Read Pure F A","Read Pure F A",FLIP,TURN,Study1,F,66,13,STUDY,8,8,,Study/JOL,"Study Phase",8008,,,-1,-1,,,,1
w10063195,qbtes1qpau,Nick_Dissertation_EX2_EP,1,13,2022-04-28T19:42:33+00:00,8.1480309963226,3,Pure_Forward.csv,READVersionA.csv,"Read Pure F A","Read Pure F A",COFFIN,DEAD,Study1,F,78,27,STUDY,8,8,,Study/JOL,"Study Phase",8003,,,-1,-1,,,,1
w10063195,qbtes1qpau,Nick_Dissertation_EX2_EP,1,14,2022-04-28T19:42:41+00:00,8.1760120391846,3,Pure_Forward.csv,READVersionA.csv,"Read Pure F A","Read Pure F A",CHISEL,HAMMER,Study1,F,9,42,STUDY,8,8,,Study/JOL,"Study Phase",8002,,,-1,-1,,,,1
w10063195,qbtes1qpau,Nick_Dissertation_EX2_EP,1,15,2022-04-28T19:42:50+00:00,8.1835880279541,3,Pure_Forward.csv,READVersionA.csv,"Read Pure F A","Read Pure F A",BALLOON,POP,Study1,F,73,26,STUDY,8,8,,Study/JOL,"Study Phase",8005,,,-1,-1,,,,1
w10063195,qbtes1qpau,Nick_Dissertation_EX2_EP,1,16,2022-04-28T19:42:58+00:00,8.149671792984,3,Pure_Forward.csv,READVersionA.csv,"Read Pure F A","Read Pure F A",HERD,COW,Study1,F,22,40,STUDY,8,8,,Study/JOL,"Study Phase",8002,,,-1,-1,,,,1
w10063195,qbtes1qpau,Nick_Dissertation_EX2_EP,1,17,2022-04-28T19:43:06+00:00,8.1427321434021,3,Pure_Forward.csv,READVersionA.csv,"Read Pure F A","Read Pure F A",REVENGE,EVEN,Study1,F,72,39,STUDY,8,8,,Study/JOL,"Study Phase",8003,,,-1,-1,,,,1
w10063195,qbtes1qpau,Nick_Dissertation_EX2_EP,1,18,2022-04-28T19:43:14+00:00,8.1764030456543,3,Pure_Forward.csv,READVersionA.csv,"Read Pure F A","Read Pure F A",TRUTHFUL,HONEST,Study1,F,83,12,STUDY,8,8,,Study/JOL,"Study Phase",8003,,,-1,-1,,,,1
w10063195,qbtes1qpau,Nick_Dissertation_EX2_EP,1,19,2022-04-28T19:43:22+00:00,8.1454629898071,3,Pure_Forward.csv,READVersionA.csv,"Read Pure F A","Read Pure F A",STRAWBERRY,FRUIT,Study1,F,74,15,STUDY,8,8,,Study/JOL,"Study Phase",8005,,,-1,-1,,,,1
w10063195,qbtes1qpau,Nick_Dissertation_EX2_EP,1,20,2022-04-28T19:43:30+00:00,8.1597189903259,3,Pure_Forward.csv,READVersionA.csv,"Read Pure F A","Read Pure F A",BRAWL,FIGHT,Study1,F,85,20,STUDY,8,8,,Study/JOL,"Study Phase",8003,,,-1,-1,,,,1
w10063195,qbtes1qpau,Nick_Dissertation_EX2_EP,1,21,2022-04-28T19:43:39+00:00,8.1513829231262,3,Pure_Forward.csv,READVersionA.csv,"Read Pure F A","Read Pure F A",HYGIENE,CLEAN,Study1,F,17,9,STUDY,8,8,,Study/JOL,"Study Phase",8003,,,-1,-1,,,,1
w10063195,qbtes1qpau,Nick_Dissertation_EX2_EP,1,22,2022-04-28T19:43:47+00:00,8.1733179092407,3,Pure_Forward.csv,READVersionA.csv,"Read Pure F A","Read Pure F A",PAW,DOG,Study1,F,15,31,STUDY,8,8,,Study/JOL,"Study Phase",8003,,,-1,-1,,,,1
w10063195,qbtes1qpau,Nick_Dissertation_EX2_EP,1,23,2022-04-28T19:43:55+00:00,8.1597390174866,3,Pure_Forward.csv,READVersionA.csv,"Read Pure F A","Read Pure F A",VILLAIN,BAD,Study1,F,68,21,STUDY,8,8,,Study/JOL,"Study Phase",8009,,,-1,-1,,,,1
w10063195,qbtes1qpau,Nick_Dissertation_EX2_EP,1,24,2022-04-28T19:44:03+00:00,8.1239500045776,3,Pure_Forward.csv,READVersionA.csv,"Read Pure F A","Read Pure F A",TUNA,FISH,Study1,F,25,16,STUDY,8,8,,Study/JOL,"Study Phase",8001,,,-1,-1,,,,1
w10063195,qbtes1qpau,Nick_Dissertation_EX2_EP,1,25,2022-04-28T19:44:11+00:00,8.1262681484222,3,Pure_Forward.csv,READVersionA.csv,"Read Pure F A","Read Pure F A",DISCUSSION,TALK,Study1,F,21,24,STUDY,8,8,,Study/JOL,"Study Phase",8003,,,-1,-1,,,,1
w10063195,qbtes1qpau,Nick_Dissertation_EX2_EP,1,26,2022-04-28T19:44:19+00:00,8.1591379642487,3,Pure_Forward.csv,READVersionA.csv,"Read Pure F A","Read Pure F A",BITTER,COLD,Study1,F,12,14,STUDY,8,8,,Study/JOL,"Study Phase",8009,,,-1,-1,,,,1
w10063195,qbtes1qpau,Nick_Dissertation_EX2_EP,1,27,2022-04-28T19:44:27+00:00,8.1486718654633,3,Pure_Forward.csv,READVersionA.csv,"Read Pure F A","Read Pure F A",HORNET,STING,Study1,F,11,44,STUDY,8,8,,Study/JOL,"Study Phase",8004,,,-1,-1,,,,1
w10063195,qbtes1qpau,Nick_Dissertation_EX2_EP,1,28,2022-04-28T19:44:36+00:00,8.1480371952057,3,Pure_Forward.csv,READVersionA.csv,"Read Pure F A","Read Pure F A",CREDIT,CARD,Study1,F,23,7,STUDY,8,8,,Study/JOL,"Study Phase",8002,,,-1,-1,,,,1
w10063195,qbtes1qpau,Nick_Dissertation_EX2_EP,1,29,2022-04-28T19:44:44+00:00,8.175323009491,3,Pure_Forward.csv,READVersionA.csv,"Read Pure F A","Read Pure F A",FAVORITE,BEST,Study1,F,75,29,STUDY,8,8,,Study/JOL,"Study Phase",8006,,,-1,-1,,,,1
w10063195,qbtes1qpau,Nick_Dissertation_EX2_EP,1,30,2022-04-28T19:44:52+00:00,8.1847579479218,3,Pure_Forward.csv,READVersionA.csv,"Read Pure F A","Read Pure F A",AIRCRAFT,PLANE,Study1,F,79,37,STUDY,8,8,,Study/JOL,"Study Phase",8003,,,-1,-1,,,,1
w10063195,qbtes1qpau,Nick_Dissertation_EX2_EP,1,31,2022-04-28T19:45:00+00:00,8.1210470199585,3,Pure_Forward.csv,READVersionA.csv,"Read Pure F A","Read Pure F A",WINDSHIELD,CAR,Study1,F,67,22,STUDY,8,8,,Study/JOL,"Study Phase",8002,,,-1,-1,,,,1
w10063195,qbtes1qpau,Nick_Dissertation_EX2_EP,1,32,2022-04-28T19:45:08+00:00,8.1612138748169,3,Pure_Forward.csv,READVersionA.csv,"Read Pure F A","Read Pure F A",DELINQUENT,BAD,Study1,F,6,38,STUDY,8,8,,Study/JOL,"Study Phase",8007,,,-1,-1,,,,1
w10063195,qbtes1qpau,Nick_Dissertation_EX2_EP,1,33,2022-04-28T19:45:16+00:00,8.1337299346924,3,Pure_Forward.csv,READVersionA.csv,"Read Pure F A","Read Pure F A",DIGESTION,STOMACH,Study1,F,7,33,STUDY,8,8,,Study/JOL,"Study Phase",8003,,,-1,-1,,,,1
w10063195,qbtes1qpau,Nick_Dissertation_EX2_EP,1,34,2022-04-28T19:45:25+00:00,8.7891170978546,3,Pure_Forward.csv,READVersionA.csv,"Read Pure F A","Read Pure F A",REVOLUTION,WAR,Study1,F,20,18,STUDY,8,8,,Study/JOL,"Study Phase",8603,,,-1,-1,,,,0.882
w10063195,qbtes1qpau,Nick_Dissertation_EX2_EP,1,35,2022-04-28T19:45:33+00:00,8.1788151264191,3,Pure_Forward.csv,READVersionA.csv,"Read Pure F A","Read Pure F A",WAY,OUT,Study1,F,16,32,STUDY,8,8,,Study/JOL,"Study Phase",8003,,,-1,-1,,,,0.563
w10063195,qbtes1qpau,Nick_Dissertation_EX2_EP,1,36,2022-04-28T19:45:41+00:00,8.1535749435425,3,Pure_Forward.csv,READVersionA.csv,"Read Pure F A","Read Pure F A",BRIDGE,WATER,Study1,F,18,36,STUDY,8,8,,Study/JOL,"Study Phase",8003,,,-1,-1,,,,1
w10063195,qbtes1qpau,Nick_Dissertation_EX2_EP,1,37,2022-04-28T19:45:50+00:00,8.1813108921051,3,Pure_Forward.csv,READVersionA.csv,"Read Pure F A","Read Pure F A",SWAN,BIRD,Study1,F,14,8,STUDY,8,8,,Study/JOL,"Study Phase",8002,,,-1,-1,,,,1
w10063195,qbtes1qpau,Nick_Dissertation_EX2_EP,1,38,2022-04-28T19:45:58+00:00,8.1446731090546,3,Pure_Forward.csv,READVersionA.csv,"Read Pure F A","Read Pure F A",PANTHER,CAT,Study1,F,76,46,STUDY,8,8,,Study/JOL,"Study Phase",8002,,,-1,-1,,,,1
w10063195,qbtes1qpau,Nick_Dissertation_EX2_EP,1,39,2022-04-28T19:46:06+00:00,8.1943490505219,3,Pure_Forward.csv,READVersionA.csv,"Read Pure F A","Read Pure F A",BREAKABLE,GLASS,Study1,F,77,35,STUDY,8,8,,Study/JOL,"Study Phase",8002,,,-1,-1,,,,1
w10063195,qbtes1qpau,Nick_Dissertation_EX2_EP,1,40,2022-04-28T19:46:14+00:00,8.1411237716675,3,Pure_Forward.csv,READVersionA.csv,"Read Pure F A","Read Pure F A",EDITOR,NEWS,Study1,F,10,30,STUDY,8,8,,Study/JOL,"Study Phase",8003,,,-1,-1,,,,1
w10063195,qbtes1qpau,Nick_Dissertation_EX2_EP,1,41,2022-04-28T19:46:22+00:00,8.1782150268555,3,Pure_Forward.csv,READVersionA.csv,"Read Pure F A","Read Pure F A",ORCHID,FLOWER,Study1,F,24,25,STUDY,8,8,,Study/JOL,"Study Phase",8009,,,-1,-1,,,,1
w10063195,qbtes1qpau,Nick_Dissertation_EX2_EP,1,42,2022-04-28T19:46:30+00:00,8.1406240463257,3,Pure_Forward.csv,READVersionA.csv,"Read Pure F A","Read Pure F A",GEOLOGY,ROCK,Study1,F,19,34,STUDY,8,8,,Study/JOL,"Study Phase",8002,,,-1,-1,,,,1
w10063195,qbtes1qpau,Nick_Dissertation_EX2_EP,1,43,2022-04-28T19:46:39+00:00,8.1590819358826,3,Pure_Forward.csv,READVersionA.csv,"Read Pure F A","Read Pure F A",ACTRESS,STAR,Study1,F,70,45,STUDY,8,8,,Study/JOL,"Study Phase",8002,,,-1,-1,,,,1
w10063195,qbtes1qpau,Nick_Dissertation_EX2_EP,1,44,2022-04-28T19:46:47+00:00,8.1521611213684,3,Pure_Forward.csv,READVersionA.csv,"Read Pure F A","Read Pure F A",PENGUIN,BIRD,Study1,F,69,17,STUDY,8,8,,Study/JOL,"Study Phase",8005,,,-1,-1,,,,1
w10063195,qbtes1qpau,Nick_Dissertation_EX2_EP,1,45,2022-04-28T19:46:55+00:00,8.1607980728149,3,Pure_Forward.csv,READVersionA.csv,"Read Pure F A","Read Pure F A",BANKER,MONEY,Study1,F,82,28,STUDY,8,8,,Study/JOL,"Study Phase",8006,,,-1,-1,,,,1
w10063195,qbtes1qpau,Nick_Dissertation_EX2_EP,1,46,2022-04-28T19:47:03+00:00,8.1531460285187,3,Pure_Forward.csv,READVersionA.csv,"Read Pure F A","Read Pure F A",NAP,SLEEP,Study1,F,84,11,STUDY,8,8,,Study/JOL,"Study Phase",8003,,,-1,-1,,,,1
w10063195,qbtes1qpau,Nick_Dissertation_EX2_EP,1,47,2022-04-28T19:47:11+00:00,8.327027797699,3,Pure_Forward.csv,READVersionA.csv,"Read Pure F A","Read Pure F A",MOON,SPACE,BUFFER2,Buffer,89,51,STUDY,8,8,,Study/JOL,BUFFER2,8002,,,-1,-1,,,,1
w10063195,qbtes1qpau,Nick_Dissertation_EX2_EP,1,48,2022-04-28T19:47:20+00:00,8.1754879951477,3,Pure_Forward.csv,READVersionA.csv,"Read Pure F A","Read Pure F A",THING,STUFF,BUFFER2,Buffer,90,48,STUDY,8,8,,Study/JOL,BUFFER2,8003,,,-1,-1,,,,1
w10063195,qbtes1qpau,Nick_Dissertation_EX2_EP,1,49,2022-04-28T19:47:28+00:00,8.1574790477753,3,Pure_Forward.csv,READVersionA.csv,"Read Pure F A","Read Pure F A",SHERRIF,POLICE,BUFFER2,Buffer,87,49,STUDY,8,8,,Study/JOL,BUFFER2,8004,,,-1,-1,,,,1
w10063195,qbtes1qpau,Nick_Dissertation_EX2_EP,1,50,2022-04-28T19:47:36+00:00,8.1669600009918,3,Pure_Forward.csv,READVersionA.csv,"Read Pure F A","Read Pure F A",GEESE,GOOSE,BUFFER2,Buffer,86,47,STUDY,8,8,,Study/JOL,BUFFER2,8003,,,-1,-1,,,,1
w10063195,qbtes1qpau,Nick_Dissertation_EX2_EP,1,51,2022-04-28T19:47:44+00:00,8.1679770946503,3,Pure_Forward.csv,READVersionA.csv,"Read Pure F A","Read Pure F A",MALT,CHOCOLATE,BUFFER2,Buffer,88,50,STUDY,8,8,,Study/JOL,BUFFER2,8003,,,-1,-1,,,,1
w10063195,qbtes1qpau,Nick_Dissertation_EX2_EP,1,52,2022-04-28T19:47:47+00:00,3.2553069591522,3,Pure_Forward.csv,READVersionA.csv,"Read Pure F A","Read Pure F A",,,,,,0,Instruct,User,-,"You have completed this section. Please press Enter.",Filler_Instruction,Instruct2,3154,,,-1,-1,,,,1
w10063195,qbtes1qpau,Nick_Dissertation_EX2_EP,1,53,2022-04-28T19:49:47+00:00,120.14439702034,3,Pure_Forward.csv,READVersionA.csv,"Read Pure F A","Read Pure F A",,,,,,0,FreeRecall,120,120,"Please list the 50 US states in alphabetical order. The task will automatically advance to the next screen after two minutes.",,Filler1,120004,"Arizona, Connecticut, California, Florida, Georgia, Idaho, Lousiana, Missouri, Mississippi, ",0,8255,112528,0,0,,1
w10063195,qbtes1qpau,Nick_Dissertation_EX2_EP,1,54,2022-04-28T19:49:59+00:00,11.149066925049,3,Pure_Forward.csv,READVersionA.csv,"Read Pure F A","Read Pure F A",,,,,,0,Instruct,-,10,"You will now be presented with the first word from each of the previously studied item pairs. Please type the missing word. If you do not know the word, you may guess or press Enter to skip forward to the next pair.",,Instruct3,10966,,,-1,-1,,,,1
w10063195,qbtes1qpau,Nick_Dissertation_EX2_EP,1,55,2022-04-28T19:50:01+00:00,2.4728720188141,3,Pure_Forward.csv,READVersionA.csv,"Read Pure F A","Read Pure F A",BALLOON,POP,Study1,F,73,26,Test,User,-,,Recall,Recall1,2353,pop,100,1339,1690,1,1,,1
w10063195,qbtes1qpau,Nick_Dissertation_EX2_EP,1,56,2022-04-28T19:50:05+00:00,3.9226269721985,3,Pure_Forward.csv,READVersionA.csv,"Read Pure F A","Read Pure F A",HORNET,STING,Study1,F,11,44,Test,User,-,,Recall,Recall1,3767,nest,44.444444444444,1513,3287,0,0,,1
w10063195,qbtes1qpau,Nick_Dissertation_EX2_EP,1,57,2022-04-28T19:50:07+00:00,2.1463730335236,3,Pure_Forward.csv,READVersionA.csv,"Read Pure F A","Read Pure F A",HERD,COW,Study1,F,22,40,Test,User,-,,Recall,Recall1,2017,cow,100,1539,1850,1,1,,1
w10063195,qbtes1qpau,Nick_Dissertation_EX2_EP,1,58,2022-04-28T19:50:09+00:00,2.3443450927734,3,Pure_Forward.csv,READVersionA.csv,"Read Pure F A","Read Pure F A",REVENGE,EVEN,Study1,F,72,39,Test,User,-,,Recall,Recall1,2247,even,100,1105,1528,1,1,,1
w10063195,qbtes1qpau,Nick_Dissertation_EX2_EP,1,59,2022-04-28T19:50:11+00:00,2.0080900192261,3,Pure_Forward.csv,READVersionA.csv,"Read Pure F A","Read Pure F A",COFFIN,DEAD,Study1,F,78,27,Test,User,-,,Recall,Recall1,1913,dead,100,1115,1682,1,1,,1
w10063195,qbtes1qpau,Nick_Dissertation_EX2_EP,1,60,2022-04-28T19:50:15+00:00,3.6454648971558,3,Pure_Forward.csv,READVersionA.csv,"Read Pure F A","Read Pure F A",ACTRESS,STAR,Study1,F,70,45,Test,User,-,,Recall,Recall1,3549,,0,-1,-1,0,0,,1
w10063195,qbtes1qpau,Nick_Dissertation_EX2_EP,1,61,2022-04-28T19:50:18+00:00,2.5177969932556,3,Pure_Forward.csv,READVersionA.csv,"Read Pure F A","Read Pure F A",AIRCRAFT,PLANE,Study1,F,79,37,Test,User,-,,Recall,Recall1,2425,plane,100,1448,2095,1,1,,1
w10063195,qbtes1qpau,Nick_Dissertation_EX2_EP,1,62,2022-04-28T19:50:37+00:00,19.483226060867,3,Pure_Forward.csv,READVersionA.csv,"Read Pure F A","Read Pure F A",BRIDGE,WATER,Study1,F,18,36,Test,User,-,,Recall,Recall1,19377,,0,-1,-1,0,0,,0.659
w10063195,qbtes1qpau,Nick_Dissertation_EX2_EP,1,63,2022-04-28T19:50:40+00:00,2.5103600025177,3,Pure_Forward.csv,READVersionA.csv,"Read Pure F A","Read Pure F A",BRAWL,FIGHT,Study1,F,85,20,Test,User,-,,Recall,Recall1,2409,,0,-1,-1,0,0,,1
w10063195,qbtes1qpau,Nick_Dissertation_EX2_EP,1,64,2022-04-28T19:50:41+00:00,1.8437850475311,3,Pure_Forward.csv,READVersionA.csv,"Read Pure F A","Read Pure F A",EDITOR,NEWS,Study1,F,10,30,Test,User,-,,Recall,Recall1,1750,,0,-1,-1,0,0,,1
w10063195,qbtes1qpau,Nick_Dissertation_EX2_EP,1,65,2022-04-28T19:50:44+00:00,2.4487609863281,3,Pure_Forward.csv,READVersionA.csv,"Read Pure F A","Read Pure F A",WAGE,MONEY,Study1,F,8,10,Test,User,-,,Recall,Recall1,2179,money,100,1012,1716,1,1,,1
w10063195,qbtes1qpau,Nick_Dissertation_EX2_EP,1,66,2022-04-28T19:50:48+00:00,3.758486032486,3,Pure_Forward.csv,READVersionA.csv,"Read Pure F A","Read Pure F A",PANTHER,CAT,Study1,F,76,46,Test,User,-,,Recall,Recall1,3670,pink,0,2872,3415,0,0,,1
w10063195,qbtes1qpau,Nick_Dissertation_EX2_EP,1,67,2022-04-28T19:50:51+00:00,3.6134819984436,3,Pure_Forward.csv,READVersionA.csv,"Read Pure F A","Read Pure F A",FLIP,TURN,Study1,F,66,13,Test,User,-,,Recall,Recall1,3513,turn,100,1427,3250,1,1,,1
w10063195,qbtes1qpau,Nick_Dissertation_EX2_EP,1,68,2022-04-28T19:50:54+00:00,2.7787079811096,3,Pure_Forward.csv,READVersionA.csv,"Read Pure F A","Read Pure F A",HYGIENE,CLEAN,Study1,F,17,9,Test,User,-,,Recall,Recall1,2682,clean,100,1580,2307,1,1,,1
w10063195,qbtes1qpau,Nick_Dissertation_EX2_EP,1,69,2022-04-28T19:50:55+00:00,1.0392668247223,3,Pure_Forward.csv,READVersionA.csv,"Read Pure F A","Read Pure F A",BREAKABLE,GLASS,Study1,F,77,35,Test,User,-,,Recall,Recall1,939,,0,-1,-1,0,0,,1
w10063195,qbtes1qpau,Nick_Dissertation_EX2_EP,1,70,2022-04-28T19:50:59+00:00,4.1063661575317,3,Pure_Forward.csv,READVersionA.csv,"Read Pure F A","Read Pure F A",DIGESTION,STOMACH,Study1,F,7,33,Test,User,-,,Recall,Recall1,3986,food,18.181818181818,2988,3586,0,0,,1
w10063195,qbtes1qpau,Nick_Dissertation_EX2_EP,1,71,2022-04-28T19:51:02+00:00,2.5427868366241,3,Pure_Forward.csv,READVersionA.csv,"Read Pure F A","Read Pure F A",VILLAIN,BAD,Study1,F,68,21,Test,User,-,,Recall,Recall1,2453,enemy,0,1567,2254,0,0,,1
w10063195,qbtes1qpau,Nick_Dissertation_EX2_EP,1,72,2022-04-28T19:51:03+00:00,1.1134212017059,3,Pure_Forward.csv,READVersionA.csv,"Read Pure F A","Read Pure F A",DISCUSSION,TALK,Study1,F,21,24,Test,User,-,,Recall,Recall1,1025,,0,-1,-1,0,0,,1
w10063195,qbtes1qpau,Nick_Dissertation_EX2_EP,1,73,2022-04-28T19:51:05+00:00,2.4714369773865,3,Pure_Forward.csv,READVersionA.csv,"Read Pure F A","Read Pure F A",CREDIT,CARD,Study1,F,23,7,Test,User,-,,Recall,Recall1,2375,card,100,1505,2167,1,1,,1
w10063195,qbtes1qpau,Nick_Dissertation_EX2_EP,1,74,2022-04-28T19:51:08+00:00,2.3554909229279,3,Pure_Forward.csv,READVersionA.csv,"Read Pure F A","Read Pure F A",TRUTHFUL,HONEST,Study1,F,83,12,Test,User,-,,Recall,Recall1,2265,honest,100,1194,1962,1,1,,1
w10063195,qbtes1qpau,Nick_Dissertation_EX2_EP,1,75,2022-04-28T19:51:13+00:00,4.9441449642181,3,Pure_Forward.csv,READVersionA.csv,"Read Pure F A","Read Pure F A",PAW,DOG,Study1,F,15,31,Test,User,-,,Recall,Recall1,4851,,0,-1,-1,0,0,,1
w10063195,qbtes1qpau,Nick_Dissertation_EX2_EP,1,76,2022-04-28T19:51:15+00:00,1.883896112442,3,Pure_Forward.csv,READVersionA.csv,"Read Pure F A","Read Pure F A",REVOLUTION,WAR,Study1,F,20,18,Test,User,-,,Recall,Recall1,1786,war,100,1156,1539,1,1,,1
w10063195,qbtes1qpau,Nick_Dissertation_EX2_EP,1,77,2022-04-28T19:51:17+00:00,2.0090780258179,3,Pure_Forward.csv,READVersionA.csv,"Read Pure F A","Read Pure F A",NAP,SLEEP,Study1,F,84,11,Test,User,-,,Recall,Recall1,1918,sleep,100,1006,1647,1,1,,1
w10063195,qbtes1qpau,Nick_Dissertation_EX2_EP,1,78,2022-04-28T19:51:19+00:00,2.6932718753815,3,Pure_Forward.csv,READVersionA.csv,"Read Pure F A","Read Pure F A",ROOT,PLANT,Study1,F,13,23,Test,User,-,,Recall,Recall1,2595,plant,100,1036,2323,1,1,,1
w10063195,qbtes1qpau,Nick_Dissertation_EX2_EP,1,79,2022-04-28T19:51:21+00:00,1.3551819324493,3,Pure_Forward.csv,READVersionA.csv,"Read Pure F A","Read Pure F A",ORCHID,FLOWER,Study1,F,24,25,Test,User,-,,Recall,Recall1,1260,,0,-1,-1,0,0,,1
w10063195,qbtes1qpau,Nick_Dissertation_EX2_EP,1,80,2022-04-28T19:51:26+00:00,4.9108669757843,3,Pure_Forward.csv,READVersionA.csv,"Read Pure F A","Read Pure F A",BANKER,MONEY,Study1,F,82,28,Test,User,-,,Recall,Recall1,4822,mone,88.888888888889,3432,4078,0,1,,1
w10063195,qbtes1qpau,Nick_Dissertation_EX2_EP,1,81,2022-04-28T19:51:28+00:00,2.9211239814758,3,Pure_Forward.csv,READVersionA.csv,"Read Pure F A","Read Pure F A",WINDSHIELD,CAR,Study1,F,67,22,Test,User,-,,Recall,Recall1,2811,car,100,2004,2483,1,1,,1
w10063195,qbtes1qpau,Nick_Dissertation_EX2_EP,1,82,2022-04-28T19:51:31+00:00,2.6821222305298,3,Pure_Forward.csv,READVersionA.csv,"Read Pure F A","Read Pure F A",THIMBLE,THREAD,Study1,F,71,43,Test,User,-,,Recall,Recall1,2564,thread,100,1294,2236,1,1,,1
w10063195,qbtes1qpau,Nick_Dissertation_EX2_EP,1,83,2022-04-28T19:51:32+00:00,1.214409828186,3,Pure_Forward.csv,READVersionA.csv,"Read Pure F A","Read Pure F A",GEOLOGY,ROCK,Study1,F,19,34,Test,User,-,,Recall,Recall1,1104,,0,-1,-1,0,0,,1
w10063195,qbtes1qpau,Nick_Dissertation_EX2_EP,1,84,2022-04-28T19:51:34+00:00,1.8942730426788,3,Pure_Forward.csv,READVersionA.csv,"Read Pure F A","Read Pure F A",DELINQUENT,BAD,Study1,F,6,38,Test,User,-,,Recall,Recall1,1804,bad,100,1173,1564,1,1,,1
w10063195,qbtes1qpau,Nick_Dissertation_EX2_EP,1,85,2022-04-28T19:51:36+00:00,2.2404320240021,3,Pure_Forward.csv,READVersionA.csv,"Read Pure F A","Read Pure F A",STRAWBERRY,FRUIT,Study1,F,74,15,Test,User,-,,Recall,Recall1,2147,fruit,100,1188,1867,1,1,,1
w10063195,qbtes1qpau,Nick_Dissertation_EX2_EP,1,86,2022-04-28T19:51:39+00:00,2.2900428771973,3,Pure_Forward.csv,READVersionA.csv,"Read Pure F A","Read Pure F A",SARDINE,FISH,Study1,F,80,41,Test,User,-,,Recall,Recall1,2196,fish,100,1323,1876,1,1,,1
w10063195,qbtes1qpau,Nick_Dissertation_EX2_EP,1,87,2022-04-28T19:51:40+00:00,1.1190550327301,3,Pure_Forward.csv,READVersionA.csv,"Read Pure F A","Read Pure F A",SWAN,BIRD,Study1,F,14,8,Test,User,-,,Recall,Recall1,1025,,0,-1,-1,0,0,,1
w10063195,qbtes1qpau,Nick_Dissertation_EX2_EP,1,88,2022-04-28T19:51:44+00:00,4.3611340522766,3,Pure_Forward.csv,READVersionA.csv,"Read Pure F A","Read Pure F A",TUNA,FISH,Study1,F,25,16,Test,User,-,,Recall,Recall1,4268,,0,-1,-1,0,0,,1
w10063195,qbtes1qpau,Nick_Dissertation_EX2_EP,1,89,2022-04-28T19:51:47+00:00,2.2911739349365,3,Pure_Forward.csv,READVersionA.csv,"Read Pure F A","Read Pure F A",WAY,OUT,Study1,F,16,32,Test,User,-,,Recall,Recall1,2194,,0,-1,-1,0,0,,1
w10063195,qbtes1qpau,Nick_Dissertation_EX2_EP,1,90,2022-04-28T19:51:50+00:00,3.141529083252,3,Pure_Forward.csv,READVersionA.csv,"Read Pure F A","Read Pure F A",LEAGUE,BASEBALL,Study1,F,81,19,Test,User,-,,Recall,Recall1,3050,baseball,100,1155,2723,1,1,,1
w10063195,qbtes1qpau,Nick_Dissertation_EX2_EP,1,91,2022-04-28T19:51:52+00:00,2.3411550521851,3,Pure_Forward.csv,READVersionA.csv,"Read Pure F A","Read Pure F A",CHISEL,HAMMER,Study1,F,9,42,Test,User,-,,Recall,Recall1,2216,hammer,100,1226,1921,1,1,,1
w10063195,qbtes1qpau,Nick_Dissertation_EX2_EP,1,92,2022-04-28T19:51:54+00:00,2.2725529670715,3,Pure_Forward.csv,READVersionA.csv,"Read Pure F A","Read Pure F A",FAVORITE,BEST,Study1,F,75,29,Test,User,-,,Recall,Recall1,2178,best,100,1467,1890,1,1,,1
w10063195,qbtes1qpau,Nick_Dissertation_EX2_EP,1,93,2022-04-28T19:51:57+00:00,2.5266110897064,3,Pure_Forward.csv,READVersionA.csv,"Read Pure F A","Read Pure F A",PENGUIN,BIRD,Study1,F,69,17,Test,User,-,,Recall,Recall1,2435,,0,-1,-1,0,0,,1
w10063195,qbtes1qpau,Nick_Dissertation_EX2_EP,1,94,2022-04-28T19:52:00+00:00,3.5851929187775,3,Pure_Forward.csv,READVersionA.csv,"Read Pure F A","Read Pure F A",BITTER,COLD,Study1,F,12,14,Test,User,-,,Recall,Recall1,3495,sweet,0,2282,3224,0,0,,1
w10063195,qbtes1qpau,Nick_Dissertation_EX2_EP,1,95,2022-04-28T19:52:41+00:00,41.069159030914,3,Pure_Forward.csv,READVersionA.csv,"Read Pure F A","Read Pure F A",,,,,,0,Instruct,-,10,"You will now be presented with a new set of word pairs. Please study each pair. Remember that your memory will be tested! Each pair will be displayed on the computer screen and will automatically advance to the next pair. Press ENTER when you are ready to begin.",Initial_Instruct,Instruct4,40957,,,-1,-1,,,,0.861
w10063195,qbtes1qpau,Nick_Dissertation_EX2_EP,1,96,2022-04-28T19:52:50+00:00,8.1293208599091,3,Pure_Forward.csv,READVersionA.csv,"Read Pure F A","Read Pure F A",SHRIMP,FISH,BUFFER3,Buffer,93,56,STUDY,8,8,,Study/JOL,BUFFER3,8007,,,-1,-1,,,,1
w10063195,qbtes1qpau,Nick_Dissertation_EX2_EP,1,97,2022-04-28T19:52:58+00:00,8.1494741439819,3,Pure_Forward.csv,READVersionA.csv,"Read Pure F A","Read Pure F A",CAMP,ADVENTURE,BUFFER3,Buffer,95,55,STUDY,8,8,,Study/JOL,BUFFER3,8005,,,-1,-1,,,,1
w10063195,qbtes1qpau,Nick_Dissertation_EX2_EP,1,98,2022-04-28T19:53:06+00:00,8.1625380516052,3,Pure_Forward.csv,READVersionA.csv,"Read Pure F A","Read Pure F A",CARROT,POTATO,BUFFER3,Buffer,91,53,STUDY,8,8,,Study/JOL,BUFFER3,8002,,,-1,-1,,,,1
w10063195,qbtes1qpau,Nick_Dissertation_EX2_EP,1,99,2022-04-28T19:53:14+00:00,8.1590268611908,3,Pure_Forward.csv,READVersionA.csv,"Read Pure F A","Read Pure F A",ICE,FROZEN,BUFFER3,Buffer,94,54,STUDY,8,8,,Study/JOL,BUFFER3,8005,,,-1,-1,,,,1
w10063195,qbtes1qpau,Nick_Dissertation_EX2_EP,1,100,2022-04-28T19:53:22+00:00,8.1483600139618,3,Pure_Forward.csv,READVersionA.csv,"Read Pure F A","Read Pure F A",NOODLE,STRING,BUFFER3,Buffer,92,52,STUDY,8,8,,Study/JOL,BUFFER3,8002,,,-1,-1,,,,1
w10063195,qbtes1qpau,Nick_Dissertation_EX2_EP,1,101,2022-04-28T19:53:30+00:00,8.1407830715179,3,Pure_Forward.csv,READVersionA.csv,"Read Pure F A","Read Pure F A",CACTUS,PLANT,Study2,F,158,81,STUDY,8,8,,Study/JOL,"Study Phase2",8003,,,-1,-1,,,,1
w10063195,qbtes1qpau,Nick_Dissertation_EX2_EP,1,102,2022-04-28T19:53:39+00:00,8.1698999404907,3,Pure_Forward.csv,READVersionA.csv,"Read Pure F A","Read Pure F A",CHORE,WORK,Study2,F,109,78,STUDY,8,8,,Study/JOL,"Study Phase2",8002,,,-1,-1,,,,1
w10063195,qbtes1qpau,Nick_Dissertation_EX2_EP,1,103,2022-04-28T19:53:47+00:00,8.1492259502411,3,Pure_Forward.csv,READVersionA.csv,"Read Pure F A","Read Pure F A",DETECTIVE,MYSTERY,Study2,F,160,86,STUDY,8,8,,Study/JOL,"Study Phase2",8004,,,-1,-1,,,,1
w10063195,qbtes1qpau,Nick_Dissertation_EX2_EP,1,104,2022-04-28T19:53:55+00:00,8.1705710887909,3,Pure_Forward.csv,READVersionA.csv,"Read Pure F A","Read Pure F A",LATCH,KEY,Study2,F,106,85,STUDY,8,8,,Study/JOL,"Study Phase2",8002,,,-1,-1,,,,1
w10063195,qbtes1qpau,Nick_Dissertation_EX2_EP,1,105,2022-04-28T19:54:03+00:00,8.1598150730133,3,Pure_Forward.csv,READVersionA.csv,"Read Pure F A","Read Pure F A",FANTASTIC,GREAT,Study2,F,105,92,STUDY,8,8,,Study/JOL,"Study Phase2",8006,,,-1,-1,,,,1
w10063195,qbtes1qpau,Nick_Dissertation_EX2_EP,1,106,2022-04-28T19:54:11+00:00,8.1418759822845,3,Pure_Forward.csv,READVersionA.csv,"Read Pure F A","Read Pure F A",ATTIRE,CLOTHES,Study2,F,113,90,STUDY,8,8,,Study/JOL,"Study Phase2",8002,,,-1,-1,,,,1
w10063195,qbtes1qpau,Nick_Dissertation_EX2_EP,1,107,2022-04-28T19:54:20+00:00,8.9686570167542,3,Pure_Forward.csv,READVersionA.csv,"Read Pure F A","Read Pure F A",SHOELACE,TIE,Study2,F,159,65,STUDY,8,8,,Study/JOL,"Study Phase2",8823,,,-1,-1,,,,0.773
w10063195,qbtes1qpau,Nick_Dissertation_EX2_EP,1,108,2022-04-28T19:54:29+00:00,8.9892868995667,3,Pure_Forward.csv,READVersionA.csv,"Read Pure F A","Read Pure F A",SIP,DRINK,Study2,F,97,63,STUDY,8,8,,Study/JOL,"Study Phase2",8850,,,-1,-1,,,,0
w10063195,qbtes1qpau,Nick_Dissertation_EX2_EP,1,109,2022-04-28T19:54:38+00:00,9.0248339176178,3,Pure_Forward.csv,READVersionA.csv,"Read Pure F A","Read Pure F A",INCENSE,SMELL,Study2,F,170,64,STUDY,8,8,,Study/JOL,"Study Phase2",8880,,,-1,-1,,,,0
w10063195,qbtes1qpau,Nick_Dissertation_EX2_EP,1,110,2022-04-28T19:54:47+00:00,8.9895792007446,3,Pure_Forward.csv,READVersionA.csv,"Read Pure F A","Read Pure F A",SHEARS,SCISSORS,Study2,F,172,59,STUDY,8,8,,Study/JOL,"Study Phase2",8823,,,-1,-1,,,,0
w10063195,qbtes1qpau,Nick_Dissertation_EX2_EP,1,111,2022-04-28T19:54:55+00:00,8.1611149311066,3,Pure_Forward.csv,READVersionA.csv,"Read Pure F A","Read Pure F A",STENCH,SMELL,Study2,F,112,60,STUDY,8,8,,Study/JOL,"Study Phase2",8003,,,-1,-1,,,,0.667
w10063195,qbtes1qpau,Nick_Dissertation_EX2_EP,1,112,2022-04-28T19:55:03+00:00,8.1483039855957,3,Pure_Forward.csv,READVersionA.csv,"Read Pure F A","Read Pure F A",CHOP,CUT,Study2,F,167,68,STUDY,8,8,,Study/JOL,"Study Phase2",8003,,,-1,-1,,,,1
w10063195,qbtes1qpau,Nick_Dissertation_EX2_EP,1,113,2022-04-28T19:55:12+00:00,8.1479408740997,3,Pure_Forward.csv,READVersionA.csv,"Read Pure F A","Read Pure F A",ATTORNEY,LAW,Study2,F,104,72,STUDY,8,8,,Study/JOL,"Study Phase2",8003,,,-1,-1,,,,1
w10063195,qbtes1qpau,Nick_Dissertation_EX2_EP,1,114,2022-04-28T19:55:20+00:00,8.1574530601501,3,Pure_Forward.csv,READVersionA.csv,"Read Pure F A","Read Pure F A",DRIVER,CAR,Study2,F,166,73,STUDY,8,8,,Study/JOL,"Study Phase2",8003,,,-1,-1,,,,1
w10063195,qbtes1qpau,Nick_Dissertation_EX2_EP,1,115,2022-04-28T19:55:28+00:00,8.1358449459076,3,Pure_Forward.csv,READVersionA.csv,"Read Pure F A","Read Pure F A",SEIZE,TAKE,Study2,F,99,75,STUDY,8,8,,Study/JOL,"Study Phase2",8002,,,-1,-1,,,,1
w10063195,qbtes1qpau,Nick_Dissertation_EX2_EP,1,116,2022-04-28T19:55:36+00:00,8.1446490287781,3,Pure_Forward.csv,READVersionA.csv,"Read Pure F A","Read Pure F A",SCALP,HEAD,Study2,F,165,93,STUDY,8,8,,Study/JOL,"Study Phase2",8002,,,-1,-1,,,,0.667
w10063195,qbtes1qpau,Nick_Dissertation_EX2_EP,1,117,2022-04-28T19:55:44+00:00,8.1484429836273,3,Pure_Forward.csv,READVersionA.csv,"Read Pure F A","Read Pure F A",CHILL,COLD,Study2,F,174,79,STUDY,8,8,,Study/JOL,"Study Phase2",8002,,,-1,-1,,,,0
w10063195,qbtes1qpau,Nick_Dissertation_EX2_EP,1,118,2022-04-28T19:55:53+00:00,8.3403160572052,3,Pure_Forward.csv,READVersionA.csv,"Read Pure F A","Read Pure F A",MULE,DONKEY,Study2,F,168,84,STUDY,8,8,,Study/JOL,"Study Phase2",8003,,,-1,-1,,,,0
w10063195,qbtes1qpau,Nick_Dissertation_EX2_EP,1,119,2022-04-28T19:56:01+00:00,8.1558399200439,3,Pure_Forward.csv,READVersionA.csv,"Read Pure F A","Read Pure F A",FEUD,FIGHT,Study2,F,173,88,STUDY,8,8,,Study/JOL,"Study Phase2",8002,,,-1,-1,,,,0.925
w10063195,qbtes1qpau,Nick_Dissertation_EX2_EP,1,120,2022-04-28T19:56:09+00:00,8.1482911109924,3,Pure_Forward.csv,READVersionA.csv,"Read Pure F A","Read Pure F A",LITTER,TRASH,Study2,F,163,57,STUDY,8,8,,Study/JOL,"Study Phase2",8002,,,-1,-1,,,,1
w10063195,qbtes1qpau,Nick_Dissertation_EX2_EP,1,121,2022-04-28T19:56:17+00:00,8.1738700866699,3,Pure_Forward.csv,READVersionA.csv,"Read Pure F A","Read Pure F A",WASP,BUG,Study2,F,102,70,STUDY,8,8,,Study/JOL,"Study Phase2",8002,,,-1,-1,,,,1
w10063195,qbtes1qpau,Nick_Dissertation_EX2_EP,1,122,2022-04-28T19:56:25+00:00,8.1352949142456,3,Pure_Forward.csv,READVersionA.csv,"Read Pure F A","Read Pure F A",CHERRY,RED,Study2,F,164,96,STUDY,8,8,,Study/JOL,"Study Phase2",8002,,,-1,-1,,,,1
w10063195,qbtes1qpau,Nick_Dissertation_EX2_EP,1,123,2022-04-28T19:56:33+00:00,8.1508419513702,3,Pure_Forward.csv,READVersionA.csv,"Read Pure F A","Read Pure F A",FURRY,DOG,Study2,F,162,95,STUDY,8,8,,Study/JOL,"Study Phase2",8003,,,-1,-1,,,,1
w10063195,qbtes1qpau,Nick_Dissertation_EX2_EP,1,124,2022-04-28T19:56:41+00:00,8.1479980945587,3,Pure_Forward.csv,READVersionA.csv,"Read Pure F A","Read Pure F A",PILOT,PLANE,Study2,F,114,76,STUDY,8,8,,Study/JOL,"Study Phase2",8003,,,-1,-1,,,,1
w10063195,qbtes1qpau,Nick_Dissertation_EX2_EP,1,125,2022-04-28T19:56:50+00:00,8.1910619735718,3,Pure_Forward.csv,READVersionA.csv,"Read Pure F A","Read Pure F A",ROOT,PLANT,Study1,F,13,23,STUDY,8,8,,Study/JOL,"Study Phase2",8005,,,-1,-1,,,,1
