Username,ID,ExperimentName,Session,Trial,Date,TimeDif,"Condition Number","Stimuli File","Order File","Condition Description","Condition Notes",Stimuli*Cue,Stimuli*Answer,Stimuli*Shuffle,"Stimuli*Stimuli Notes",Stimuli*Value,Procedure*Item,"Procedure*Trial Type","Procedure*Max Time","Procedure*Min Time",Procedure*Text,"Procedure*Procedure Notes",Procedure*Shuffle,Response*RT,Response*Response,Response*Accuracy,Response*RTfirst,Response*RTlast,Response*strictAcc,Response*lenientAcc,Response*focus,Response*Focus
w10103338,v47iguzl8m,Nick_Dissertation_EX2_EP,1,1,2022-04-19T19:58:04+00:00,27.9695520401,3,Pure_Forward.csv,READVersionA.csv,"Read Pure F A","Read Pure F A",,,,,,0,Instruct,-,10,"Please study each of the following word pairs. Remember that your memory will be tested! Each pair will be displayed on the computer screen and will automatically advance to the next pair. Press ENTER when you are ready to begin.",Initial_Instruct,Instruct1,27509,,,-1,-1,,,,1
w10103338,v47iguzl8m,Nick_Dissertation_EX2_EP,1,2,2022-04-19T19:58:12+00:00,8.4489538669586,3,Pure_Forward.csv,READVersionA.csv,"Read Pure F A","Read Pure F A",BASEBALL,CATCHER,BUFFER1,Buffer,2,6,STUDY,8,8,,Study/JOL,BUFFER,8008,,,-1,-1,,,,1
w10103338,v47iguzl8m,Nick_Dissertation_EX2_EP,1,3,2022-04-19T19:58:21+00:00,8.3082361221313,3,Pure_Forward.csv,READVersionA.csv,"Read Pure F A","Read Pure F A",TREES,GREEN,BUFFER1,Buffer,1,5,STUDY,8,8,,Study/JOL,BUFFER,8003,,,-1,-1,,,,1
w10103338,v47iguzl8m,Nick_Dissertation_EX2_EP,1,4,2022-04-19T19:58:29+00:00,8.3214468955994,3,Pure_Forward.csv,READVersionA.csv,"Read Pure F A","Read Pure F A",PEANUT,BUTTER,BUFFER1,Buffer,3,2,STUDY,8,8,,Study/JOL,BUFFER,8003,,,-1,-1,,,,1
w10103338,v47iguzl8m,Nick_Dissertation_EX2_EP,1,5,2022-04-19T19:58:37+00:00,8.3040490150452,3,Pure_Forward.csv,READVersionA.csv,"Read Pure F A","Read Pure F A",SPACE,JAM,BUFFER1,Buffer,5,4,STUDY,8,8,,Study/JOL,BUFFER,8009,,,-1,-1,,,,1
w10103338,v47iguzl8m,Nick_Dissertation_EX2_EP,1,6,2022-04-19T19:58:47+00:00,9.2819540500641,3,Pure_Forward.csv,READVersionA.csv,"Read Pure F A","Read Pure F A",SCARE,HIDE,BUFFER1,Buffer,4,3,STUDY,8,8,,Study/JOL,BUFFER,8008,,,-1,-1,,,,1
w10103338,v47iguzl8m,Nick_Dissertation_EX2_EP,1,7,2022-04-19T19:58:55+00:00,8.3298368453979,3,Pure_Forward.csv,READVersionA.csv,"Read Pure F A","Read Pure F A",TUNA,FISH,Study1,F,25,21,STUDY,8,8,,Study/JOL,"Study Phase",8008,,,-1,-1,,,,1
w10103338,v47iguzl8m,Nick_Dissertation_EX2_EP,1,8,2022-04-19T19:59:03+00:00,8.2845051288605,3,Pure_Forward.csv,READVersionA.csv,"Read Pure F A","Read Pure F A",FAVORITE,BEST,Study1,F,75,7,STUDY,8,8,,Study/JOL,"Study Phase",8003,,,-1,-1,,,,1
w10103338,v47iguzl8m,Nick_Dissertation_EX2_EP,1,9,2022-04-19T19:59:11+00:00,8.2904579639435,3,Pure_Forward.csv,READVersionA.csv,"Read Pure F A","Read Pure F A",ACTRESS,STAR,Study1,F,70,19,STUDY,8,8,,Study/JOL,"Study Phase",8006,,,-1,-1,,,,1
w10103338,v47iguzl8m,Nick_Dissertation_EX2_EP,1,10,2022-04-19T19:59:20+00:00,8.5425710678101,3,Pure_Forward.csv,READVersionA.csv,"Read Pure F A","Read Pure F A",ORCHID,FLOWER,Study1,F,24,13,STUDY,8,8,,Study/JOL,"Study Phase",8003,,,-1,-1,,,,1
w10103338,v47iguzl8m,Nick_Dissertation_EX2_EP,1,11,2022-04-19T19:59:28+00:00,8.2918109893799,3,Pure_Forward.csv,READVersionA.csv,"Read Pure F A","Read Pure F A",REVOLUTION,WAR,Study1,F,20,32,STUDY,8,8,,Study/JOL,"Study Phase",8009,,,-1,-1,,,,1
w10103338,v47iguzl8m,Nick_Dissertation_EX2_EP,1,12,2022-04-19T19:59:37+00:00,8.2889559268951,3,Pure_Forward.csv,READVersionA.csv,"Read Pure F A","Read Pure F A",DELINQUENT,BAD,Study1,F,6,29,STUDY,8,8,,Study/JOL,"Study Phase",8003,,,-1,-1,,,,1
w10103338,v47iguzl8m,Nick_Dissertation_EX2_EP,1,13,2022-04-19T19:59:45+00:00,8.2898859977722,3,Pure_Forward.csv,READVersionA.csv,"Read Pure F A","Read Pure F A",PAW,DOG,Study1,F,15,11,STUDY,8,8,,Study/JOL,"Study Phase",8003,,,-1,-1,,,,1
w10103338,v47iguzl8m,Nick_Dissertation_EX2_EP,1,14,2022-04-19T19:59:53+00:00,8.3059000968933,3,Pure_Forward.csv,READVersionA.csv,"Read Pure F A","Read Pure F A",AIRCRAFT,PLANE,Study1,F,79,34,STUDY,8,8,,Study/JOL,"Study Phase",8003,,,-1,-1,,,,1
w10103338,v47iguzl8m,Nick_Dissertation_EX2_EP,1,15,2022-04-19T20:00:02+00:00,8.3297250270844,3,Pure_Forward.csv,READVersionA.csv,"Read Pure F A","Read Pure F A",REVENGE,EVEN,Study1,F,72,40,STUDY,8,8,,Study/JOL,"Study Phase",8006,,,-1,-1,,,,1
w10103338,v47iguzl8m,Nick_Dissertation_EX2_EP,1,16,2022-04-19T20:00:10+00:00,8.3361129760742,3,Pure_Forward.csv,READVersionA.csv,"Read Pure F A","Read Pure F A",WINDSHIELD,CAR,Study1,F,67,45,STUDY,8,8,,Study/JOL,"Study Phase",8008,,,-1,-1,,,,1
w10103338,v47iguzl8m,Nick_Dissertation_EX2_EP,1,17,2022-04-19T20:00:18+00:00,8.3019449710846,3,Pure_Forward.csv,READVersionA.csv,"Read Pure F A","Read Pure F A",ROOT,PLANT,Study1,F,13,44,STUDY,8,8,,Study/JOL,"Study Phase",8010,,,-1,-1,,,,1
w10103338,v47iguzl8m,Nick_Dissertation_EX2_EP,1,18,2022-04-19T20:00:26+00:00,8.2999649047852,3,Pure_Forward.csv,READVersionA.csv,"Read Pure F A","Read Pure F A",HORNET,STING,Study1,F,11,15,STUDY,8,8,,Study/JOL,"Study Phase",8005,,,-1,-1,,,,1
w10103338,v47iguzl8m,Nick_Dissertation_EX2_EP,1,19,2022-04-19T20:00:35+00:00,8.3161101341248,3,Pure_Forward.csv,READVersionA.csv,"Read Pure F A","Read Pure F A",CHISEL,HAMMER,Study1,F,9,10,STUDY,8,8,,Study/JOL,"Study Phase",8003,,,-1,-1,,,,1
w10103338,v47iguzl8m,Nick_Dissertation_EX2_EP,1,20,2022-04-19T20:00:43+00:00,8.2961738109589,3,Pure_Forward.csv,READVersionA.csv,"Read Pure F A","Read Pure F A",DISCUSSION,TALK,Study1,F,21,20,STUDY,8,8,,Study/JOL,"Study Phase",8004,,,-1,-1,,,,1
w10103338,v47iguzl8m,Nick_Dissertation_EX2_EP,1,21,2022-04-19T20:00:51+00:00,8.3020761013031,3,Pure_Forward.csv,READVersionA.csv,"Read Pure F A","Read Pure F A",PENGUIN,BIRD,Study1,F,69,41,STUDY,8,8,,Study/JOL,"Study Phase",8006,,,-1,-1,,,,1
w10103338,v47iguzl8m,Nick_Dissertation_EX2_EP,1,22,2022-04-19T20:01:01+00:00,9.2006978988647,3,Pure_Forward.csv,READVersionA.csv,"Read Pure F A","Read Pure F A",SWAN,BIRD,Study1,F,14,33,STUDY,8,8,,Study/JOL,"Study Phase",8008,,,-1,-1,,,,1
w10103338,v47iguzl8m,Nick_Dissertation_EX2_EP,1,23,2022-04-19T20:01:09+00:00,8.3287370204926,3,Pure_Forward.csv,READVersionA.csv,"Read Pure F A","Read Pure F A",COFFIN,DEAD,Study1,F,78,9,STUDY,8,8,,Study/JOL,"Study Phase",8017,,,-1,-1,,,,1
w10103338,v47iguzl8m,Nick_Dissertation_EX2_EP,1,24,2022-04-19T20:01:17+00:00,8.3069291114807,3,Pure_Forward.csv,READVersionA.csv,"Read Pure F A","Read Pure F A",TRUTHFUL,HONEST,Study1,F,83,8,STUDY,8,8,,Study/JOL,"Study Phase",8008,,,-1,-1,,,,1
w10103338,v47iguzl8m,Nick_Dissertation_EX2_EP,1,25,2022-04-19T20:01:26+00:00,8.3122608661652,3,Pure_Forward.csv,READVersionA.csv,"Read Pure F A","Read Pure F A",SARDINE,FISH,Study1,F,80,16,STUDY,8,8,,Study/JOL,"Study Phase",8009,,,-1,-1,,,,1
w10103338,v47iguzl8m,Nick_Dissertation_EX2_EP,1,26,2022-04-19T20:01:34+00:00,8.3018751144409,3,Pure_Forward.csv,READVersionA.csv,"Read Pure F A","Read Pure F A",FLIP,TURN,Study1,F,66,39,STUDY,8,8,,Study/JOL,"Study Phase",8010,,,-1,-1,,,,1
w10103338,v47iguzl8m,Nick_Dissertation_EX2_EP,1,27,2022-04-19T20:01:42+00:00,8.3121860027313,3,Pure_Forward.csv,READVersionA.csv,"Read Pure F A","Read Pure F A",BANKER,MONEY,Study1,F,82,14,STUDY,8,8,,Study/JOL,"Study Phase",8005,,,-1,-1,,,,1
w10103338,v47iguzl8m,Nick_Dissertation_EX2_EP,1,28,2022-04-19T20:01:50+00:00,8.3115899562836,3,Pure_Forward.csv,READVersionA.csv,"Read Pure F A","Read Pure F A",STRAWBERRY,FRUIT,Study1,F,74,37,STUDY,8,8,,Study/JOL,"Study Phase",8009,,,-1,-1,,,,1
w10103338,v47iguzl8m,Nick_Dissertation_EX2_EP,1,29,2022-04-19T20:01:59+00:00,8.2959110736847,3,Pure_Forward.csv,READVersionA.csv,"Read Pure F A","Read Pure F A",CREDIT,CARD,Study1,F,23,23,STUDY,8,8,,Study/JOL,"Study Phase",8004,,,-1,-1,,,,1
w10103338,v47iguzl8m,Nick_Dissertation_EX2_EP,1,30,2022-04-19T20:02:07+00:00,8.2965099811554,3,Pure_Forward.csv,READVersionA.csv,"Read Pure F A","Read Pure F A",BRAWL,FIGHT,Study1,F,85,25,STUDY,8,8,,Study/JOL,"Study Phase",8009,,,-1,-1,,,,1
w10103338,v47iguzl8m,Nick_Dissertation_EX2_EP,1,31,2022-04-19T20:02:15+00:00,8.3007500171661,3,Pure_Forward.csv,READVersionA.csv,"Read Pure F A","Read Pure F A",EDITOR,NEWS,Study1,F,10,38,STUDY,8,8,,Study/JOL,"Study Phase",8010,,,-1,-1,,,,1
w10103338,v47iguzl8m,Nick_Dissertation_EX2_EP,1,32,2022-04-19T20:02:24+00:00,8.2899949550629,3,Pure_Forward.csv,READVersionA.csv,"Read Pure F A","Read Pure F A",WAY,OUT,Study1,F,16,26,STUDY,8,8,,Study/JOL,"Study Phase",8003,,,-1,-1,,,,1
w10103338,v47iguzl8m,Nick_Dissertation_EX2_EP,1,33,2022-04-19T20:02:32+00:00,8.3325140476227,3,Pure_Forward.csv,READVersionA.csv,"Read Pure F A","Read Pure F A",HERD,COW,Study1,F,22,22,STUDY,8,8,,Study/JOL,"Study Phase",8009,,,-1,-1,,,,1
w10103338,v47iguzl8m,Nick_Dissertation_EX2_EP,1,34,2022-04-19T20:02:40+00:00,8.3107080459595,3,Pure_Forward.csv,READVersionA.csv,"Read Pure F A","Read Pure F A",BRIDGE,WATER,Study1,F,18,18,STUDY,8,8,,Study/JOL,"Study Phase",8011,,,-1,-1,,,,1
w10103338,v47iguzl8m,Nick_Dissertation_EX2_EP,1,35,2022-04-19T20:02:49+00:00,8.3516609668732,3,Pure_Forward.csv,READVersionA.csv,"Read Pure F A","Read Pure F A",THIMBLE,THREAD,Study1,F,71,24,STUDY,8,8,,Study/JOL,"Study Phase",8010,,,-1,-1,,,,1
w10103338,v47iguzl8m,Nick_Dissertation_EX2_EP,1,36,2022-04-19T20:02:57+00:00,8.3026280403137,3,Pure_Forward.csv,READVersionA.csv,"Read Pure F A","Read Pure F A",VILLAIN,BAD,Study1,F,68,30,STUDY,8,8,,Study/JOL,"Study Phase",8003,,,-1,-1,,,,1
w10103338,v47iguzl8m,Nick_Dissertation_EX2_EP,1,37,2022-04-19T20:03:05+00:00,8.3093409538269,3,Pure_Forward.csv,READVersionA.csv,"Read Pure F A","Read Pure F A",BALLOON,POP,Study1,F,73,27,STUDY,8,8,,Study/JOL,"Study Phase",8007,,,-1,-1,,,,1
w10103338,v47iguzl8m,Nick_Dissertation_EX2_EP,1,38,2022-04-19T20:03:14+00:00,8.2982058525085,3,Pure_Forward.csv,READVersionA.csv,"Read Pure F A","Read Pure F A",GEOLOGY,ROCK,Study1,F,19,36,STUDY,8,8,,Study/JOL,"Study Phase",8011,,,-1,-1,,,,1
w10103338,v47iguzl8m,Nick_Dissertation_EX2_EP,1,39,2022-04-19T20:03:22+00:00,8.3055009841919,3,Pure_Forward.csv,READVersionA.csv,"Read Pure F A","Read Pure F A",WAGE,MONEY,Study1,F,8,17,STUDY,8,8,,Study/JOL,"Study Phase",8009,,,-1,-1,,,,1
w10103338,v47iguzl8m,Nick_Dissertation_EX2_EP,1,40,2022-04-19T20:03:30+00:00,8.3021941184998,3,Pure_Forward.csv,READVersionA.csv,"Read Pure F A","Read Pure F A",BITTER,COLD,Study1,F,12,12,STUDY,8,8,,Study/JOL,"Study Phase",8003,,,-1,-1,,,,1
w10103338,v47iguzl8m,Nick_Dissertation_EX2_EP,1,41,2022-04-19T20:03:38+00:00,8.3030319213867,3,Pure_Forward.csv,READVersionA.csv,"Read Pure F A","Read Pure F A",BREAKABLE,GLASS,Study1,F,77,28,STUDY,8,8,,Study/JOL,"Study Phase",8007,,,-1,-1,,,,1
w10103338,v47iguzl8m,Nick_Dissertation_EX2_EP,1,42,2022-04-19T20:03:47+00:00,8.2972459793091,3,Pure_Forward.csv,READVersionA.csv,"Read Pure F A","Read Pure F A",PANTHER,CAT,Study1,F,76,31,STUDY,8,8,,Study/JOL,"Study Phase",8004,,,-1,-1,,,,1
w10103338,v47iguzl8m,Nick_Dissertation_EX2_EP,1,43,2022-04-19T20:03:56+00:00,9.4531881809235,3,Pure_Forward.csv,READVersionA.csv,"Read Pure F A","Read Pure F A",HYGIENE,CLEAN,Study1,F,17,42,STUDY,8,8,,Study/JOL,"Study Phase",8005,,,-1,-1,,,,1
w10103338,v47iguzl8m,Nick_Dissertation_EX2_EP,1,44,2022-04-19T20:04:05+00:00,8.299901008606,3,Pure_Forward.csv,READVersionA.csv,"Read Pure F A","Read Pure F A",NAP,SLEEP,Study1,F,84,43,STUDY,8,8,,Study/JOL,"Study Phase",8003,,,-1,-1,,,,1
w10103338,v47iguzl8m,Nick_Dissertation_EX2_EP,1,45,2022-04-19T20:04:13+00:00,8.2988460063934,3,Pure_Forward.csv,READVersionA.csv,"Read Pure F A","Read Pure F A",LEAGUE,BASEBALL,Study1,F,81,35,STUDY,8,8,,Study/JOL,"Study Phase",8011,,,-1,-1,,,,1
w10103338,v47iguzl8m,Nick_Dissertation_EX2_EP,1,46,2022-04-19T20:04:21+00:00,8.2924189567566,3,Pure_Forward.csv,READVersionA.csv,"Read Pure F A","Read Pure F A",DIGESTION,STOMACH,Study1,F,7,46,STUDY,8,8,,Study/JOL,"Study Phase",8004,,,-1,-1,,,,1
w10103338,v47iguzl8m,Nick_Dissertation_EX2_EP,1,47,2022-04-19T20:04:29+00:00,8.3022968769073,3,Pure_Forward.csv,READVersionA.csv,"Read Pure F A","Read Pure F A",MOON,SPACE,BUFFER2,Buffer,89,50,STUDY,8,8,,Study/JOL,BUFFER2,8008,,,-1,-1,,,,1
w10103338,v47iguzl8m,Nick_Dissertation_EX2_EP,1,48,2022-04-19T20:04:38+00:00,8.3018219470978,3,Pure_Forward.csv,READVersionA.csv,"Read Pure F A","Read Pure F A",THING,STUFF,BUFFER2,Buffer,90,47,STUDY,8,8,,Study/JOL,BUFFER2,8009,,,-1,-1,,,,1
w10103338,v47iguzl8m,Nick_Dissertation_EX2_EP,1,49,2022-04-19T20:04:46+00:00,8.2910330295563,3,Pure_Forward.csv,READVersionA.csv,"Read Pure F A","Read Pure F A",GEESE,GOOSE,BUFFER2,Buffer,86,48,STUDY,8,8,,Study/JOL,BUFFER2,8003,,,-1,-1,,,,1
w10103338,v47iguzl8m,Nick_Dissertation_EX2_EP,1,50,2022-04-19T20:04:54+00:00,8.2891249656677,3,Pure_Forward.csv,READVersionA.csv,"Read Pure F A","Read Pure F A",SHERRIF,POLICE,BUFFER2,Buffer,87,51,STUDY,8,8,,Study/JOL,BUFFER2,8005,,,-1,-1,,,,1
w10103338,v47iguzl8m,Nick_Dissertation_EX2_EP,1,51,2022-04-19T20:05:03+00:00,8.3037261962891,3,Pure_Forward.csv,READVersionA.csv,"Read Pure F A","Read Pure F A",MALT,CHOCOLATE,BUFFER2,Buffer,88,49,STUDY,8,8,,Study/JOL,BUFFER2,8009,,,-1,-1,,,,1
w10103338,v47iguzl8m,Nick_Dissertation_EX2_EP,1,52,2022-04-19T20:05:06+00:00,3.1791698932648,3,Pure_Forward.csv,READVersionA.csv,"Read Pure F A","Read Pure F A",,,,,,0,Instruct,User,-,"You have completed this section. Please press Enter.",Filler_Instruction,Instruct2,2907,,,-1,-1,,,,1
w10103338,v47iguzl8m,Nick_Dissertation_EX2_EP,1,53,2022-04-19T20:07:06+00:00,120.29329299927,3,Pure_Forward.csv,READVersionA.csv,"Read Pure F A","Read Pure F A",,,,,,0,FreeRecall,120,120,"Please list the 50 US states in alphabetical order. The task will automatically advance to the next screen after two minutes.",,Filler1,120007,"Alabama Alaska Arizona Arkansas California Colorado Connecticut Delaware Florida Georgia Hawaii Idaho Illinois Indiana Iowa Kansas Kentucky Louisiana Maine Maryland Massachusetts Michigan Minnesota Mississippi Missouri Montana Nebraska Nevada New Hampshire New Jersey New Mexico New York North Carolina North Dakota Ohio Oklahoma Oregon Pennsylvania Rhode Island South Carolina South Dakota Tennessee Texas Utah Vermont Virginia Washington West Virginia Wisconsin Wyoming",0,-1,-1,0,0,,0.933
w10103338,v47iguzl8m,Nick_Dissertation_EX2_EP,1,54,2022-04-19T20:07:17+00:00,10.455584049225,3,Pure_Forward.csv,READVersionA.csv,"Read Pure F A","Read Pure F A",,,,,,0,Instruct,-,10,"You will now be presented with the first word from each of the previously studied item pairs. Please type the missing word. If you do not know the word, you may guess or press Enter to skip forward to the next pair.",,Instruct3,10016,,,-1,-1,,,,1
w10103338,v47iguzl8m,Nick_Dissertation_EX2_EP,1,55,2022-04-19T20:07:24+00:00,7.6234350204468,3,Pure_Forward.csv,READVersionA.csv,"Read Pure F A","Read Pure F A",BITTER,COLD,Study1,F,12,12,Test,User,-,,Recall,Recall1,7206,sweet,0,5744,6782,0,0,,1
w10103338,v47iguzl8m,Nick_Dissertation_EX2_EP,1,56,2022-04-19T20:07:27+00:00,2.714467048645,3,Pure_Forward.csv,READVersionA.csv,"Read Pure F A","Read Pure F A",BRIDGE,WATER,Study1,F,18,18,Test,User,-,,Recall,Recall1,2441,water,100,1547,2031,1,1,,1
w10103338,v47iguzl8m,Nick_Dissertation_EX2_EP,1,57,2022-04-19T20:07:30+00:00,2.769681930542,3,Pure_Forward.csv,READVersionA.csv,"Read Pure F A","Read Pure F A",AIRCRAFT,PLANE,Study1,F,79,34,Test,User,-,,Recall,Recall1,2347,plane,100,1544,1944,1,1,,1
w10103338,v47iguzl8m,Nick_Dissertation_EX2_EP,1,58,2022-04-19T20:07:34+00:00,4.3615229129791,3,Pure_Forward.csv,READVersionA.csv,"Read Pure F A","Read Pure F A",PENGUIN,BIRD,Study1,F,69,41,Test,User,-,,Recall,Recall1,4103,ice,28.571428571429,3421,3530,0,0,,1
w10103338,v47iguzl8m,Nick_Dissertation_EX2_EP,1,59,2022-04-19T20:07:37+00:00,2.5657889842987,3,Pure_Forward.csv,READVersionA.csv,"Read Pure F A","Read Pure F A",GEOLOGY,ROCK,Study1,F,19,36,Test,User,-,,Recall,Recall1,2291,rock,100,1207,1619,1,1,,1
w10103338,v47iguzl8m,Nick_Dissertation_EX2_EP,1,60,2022-04-19T20:07:41+00:00,4.7486619949341,3,Pure_Forward.csv,READVersionA.csv,"Read Pure F A","Read Pure F A",ACTRESS,STAR,Study1,F,70,19,Test,User,-,,Recall,Recall1,4465,model,0,2311,3065,0,0,,1
w10103338,v47iguzl8m,Nick_Dissertation_EX2_EP,1,61,2022-04-19T20:07:55+00:00,13.205147981644,3,Pure_Forward.csv,READVersionA.csv,"Read Pure F A","Read Pure F A",WAGE,MONEY,Study1,F,8,17,Test,User,-,,Recall,Recall1,12891,money,100,11515,12625,1,1,,1
w10103338,v47iguzl8m,Nick_Dissertation_EX2_EP,1,62,2022-04-19T20:08:04+00:00,9.8065810203552,3,Pure_Forward.csv,READVersionA.csv,"Read Pure F A","Read Pure F A",REVENGE,EVEN,Study1,F,72,40,Test,User,-,,Recall,Recall1,9371,evil,50,7877,8408,0,0,,1
w10103338,v47iguzl8m,Nick_Dissertation_EX2_EP,1,63,2022-04-19T20:08:13+00:00,8.3421530723572,3,Pure_Forward.csv,READVersionA.csv,"Read Pure F A","Read Pure F A",THIMBLE,THREAD,Study1,F,71,24,Test,User,-,,Recall,Recall1,7915,nail,20,3840,7532,0,0,,1
w10103338,v47iguzl8m,Nick_Dissertation_EX2_EP,1,64,2022-04-19T20:08:19+00:00,6.6512520313263,3,Pure_Forward.csv,READVersionA.csv,"Read Pure F A","Read Pure F A",HYGIENE,CLEAN,Study1,F,17,42,Test,User,-,,Recall,Recall1,6356,clean,100,4960,6155,1,1,,1
w10103338,v47iguzl8m,Nick_Dissertation_EX2_EP,1,65,2022-04-19T20:08:22+00:00,3.171886920929,3,Pure_Forward.csv,READVersionA.csv,"Read Pure F A","Read Pure F A",BANKER,MONEY,Study1,F,82,14,Test,User,-,,Recall,Recall1,2861,money,100,2039,2459,1,1,,1
w10103338,v47iguzl8m,Nick_Dissertation_EX2_EP,1,66,2022-04-19T20:08:28+00:00,5.6963820457458,3,Pure_Forward.csv,READVersionA.csv,"Read Pure F A","Read Pure F A",FAVORITE,BEST,Study1,F,75,7,Test,User,-,,Recall,Recall1,5401,best,100,3057,4527,1,1,,1
w10103338,v47iguzl8m,Nick_Dissertation_EX2_EP,1,67,2022-04-19T20:08:31+00:00,2.7139320373535,3,Pure_Forward.csv,READVersionA.csv,"Read Pure F A","Read Pure F A",TUNA,FISH,Study1,F,25,21,Test,User,-,,Recall,Recall1,2417,fish,100,1595,2046,1,1,,1
w10103338,v47iguzl8m,Nick_Dissertation_EX2_EP,1,68,2022-04-19T20:08:37+00:00,5.6631290912628,3,Pure_Forward.csv,READVersionA.csv,"Read Pure F A","Read Pure F A",FLIP,TURN,Study1,F,66,39,Test,User,-,,Recall,Recall1,3905,coin,25,1295,3035,0,0,,1
w10103338,v47iguzl8m,Nick_Dissertation_EX2_EP,1,69,2022-04-19T20:08:40+00:00,3.5171599388123,3,Pure_Forward.csv,READVersionA.csv,"Read Pure F A","Read Pure F A",PAW,DOG,Study1,F,15,11,Test,User,-,,Recall,Recall1,3050,dog,100,2394,2665,1,1,,1
w10103338,v47iguzl8m,Nick_Dissertation_EX2_EP,1,70,2022-04-19T20:08:54+00:00,13.670826911926,3,Pure_Forward.csv,READVersionA.csv,"Read Pure F A","Read Pure F A",WAY,OUT,Study1,F,16,26,Test,User,-,,Recall,Recall1,12424,go,40,5194,12090,0,0,,1
w10103338,v47iguzl8m,Nick_Dissertation_EX2_EP,1,71,2022-04-19T20:08:57+00:00,3.6777770519257,3,Pure_Forward.csv,READVersionA.csv,"Read Pure F A","Read Pure F A",REVOLUTION,WAR,Study1,F,20,32,Test,User,-,,Recall,Recall1,3259,change,22.222222222222,2492,3024,0,0,,1
w10103338,v47iguzl8m,Nick_Dissertation_EX2_EP,1,72,2022-04-19T20:09:06+00:00,8.9760820865631,3,Pure_Forward.csv,READVersionA.csv,"Read Pure F A","Read Pure F A",EDITOR,NEWS,Study1,F,10,38,Test,User,-,,Recall,Recall1,7533,camera,20,5414,6774,0,0,,1
w10103338,v47iguzl8m,Nick_Dissertation_EX2_EP,1,73,2022-04-19T20:09:09+00:00,2.9732739925385,3,Pure_Forward.csv,READVersionA.csv,"Read Pure F A","Read Pure F A",ROOT,PLANT,Study1,F,13,44,Test,User,-,,Recall,Recall1,2685,tree,22.222222222222,1198,2431,0,0,,1
w10103338,v47iguzl8m,Nick_Dissertation_EX2_EP,1,74,2022-04-19T20:09:12+00:00,2.3258337974548,3,Pure_Forward.csv,READVersionA.csv,"Read Pure F A","Read Pure F A",HERD,COW,Study1,F,22,22,Test,User,-,,Recall,Recall1,2029,sheep,0,1273,1807,0,0,,1
w10103338,v47iguzl8m,Nick_Dissertation_EX2_EP,1,75,2022-04-19T20:09:16+00:00,4.1015632152557,3,Pure_Forward.csv,READVersionA.csv,"Read Pure F A","Read Pure F A",CHISEL,HAMMER,Study1,F,9,10,Test,User,-,,Recall,Recall1,3800,hammer,100,2259,3467,1,1,,1
w10103338,v47iguzl8m,Nick_Dissertation_EX2_EP,1,76,2022-04-19T20:09:22+00:00,5.7689368724823,3,Pure_Forward.csv,READVersionA.csv,"Read Pure F A","Read Pure F A",COFFIN,DEAD,Study1,F,78,9,Test,User,-,,Recall,Recall1,5466,dead,100,2558,3036,1,1,,1
w10103338,v47iguzl8m,Nick_Dissertation_EX2_EP,1,77,2022-04-19T20:09:26+00:00,4.7292029857635,3,Pure_Forward.csv,READVersionA.csv,"Read Pure F A","Read Pure F A",STRAWBERRY,FRUIT,Study1,F,74,37,Test,User,-,,Recall,Recall1,4458,shortcake,28.571428571429,2535,3993,0,0,,1
w10103338,v47iguzl8m,Nick_Dissertation_EX2_EP,1,78,2022-04-19T20:09:30+00:00,3.9931130409241,3,Pure_Forward.csv,READVersionA.csv,"Read Pure F A","Read Pure F A",DELINQUENT,BAD,Study1,F,6,29,Test,User,-,,Recall,Recall1,3695,child,25,1855,3542,0,0,,1
w10103338,v47iguzl8m,Nick_Dissertation_EX2_EP,1,79,2022-04-19T20:09:36+00:00,5.7281448841095,3,Pure_Forward.csv,READVersionA.csv,"Read Pure F A","Read Pure F A",LEAGUE,BASEBALL,Study1,F,81,35,Test,User,-,,Recall,Recall1,5440,player,14.285714285714,4718,5226,0,0,,1
w10103338,v47iguzl8m,Nick_Dissertation_EX2_EP,1,80,2022-04-19T20:09:38+00:00,2.3614101409912,3,Pure_Forward.csv,READVersionA.csv,"Read Pure F A","Read Pure F A",CREDIT,CARD,Study1,F,23,23,Test,User,-,,Recall,Recall1,2081,card,100,1449,1907,1,1,,1
w10103338,v47iguzl8m,Nick_Dissertation_EX2_EP,1,81,2022-04-19T20:09:43+00:00,4.508199930191,3,Pure_Forward.csv,READVersionA.csv,"Read Pure F A","Read Pure F A",BALLOON,POP,Study1,F,73,27,Test,User,-,,Recall,Recall1,4227,animal,0,2701,3735,0,0,,1
w10103338,v47iguzl8m,Nick_Dissertation_EX2_EP,1,82,2022-04-19T20:09:46+00:00,3.2965140342712,3,Pure_Forward.csv,READVersionA.csv,"Read Pure F A","Read Pure F A",DISCUSSION,TALK,Study1,F,21,20,Test,User,-,,Recall,Recall1,3026,talk,100,2236,2626,1,1,,1
w10103338,v47iguzl8m,Nick_Dissertation_EX2_EP,1,83,2022-04-19T20:09:49+00:00,3.0748031139374,3,Pure_Forward.csv,READVersionA.csv,"Read Pure F A","Read Pure F A",BRAWL,FIGHT,Study1,F,85,25,Test,User,-,,Recall,Recall1,2789,fight,100,1429,2334,1,1,,1
w10103338,v47iguzl8m,Nick_Dissertation_EX2_EP,1,84,2022-04-19T20:09:58+00:00,8.3832759857178,3,Pure_Forward.csv,READVersionA.csv,"Read Pure F A","Read Pure F A",VILLAIN,BAD,Study1,F,68,30,Test,User,-,,Recall,Recall1,8097,superhero,0,5275,7824,0,0,,1
w10103338,v47iguzl8m,Nick_Dissertation_EX2_EP,1,85,2022-04-19T20:10:03+00:00,5.7725667953491,3,Pure_Forward.csv,READVersionA.csv,"Read Pure F A","Read Pure F A",HORNET,STING,Study1,F,11,15,Test,User,-,,Recall,Recall1,5481,wasp,22.222222222222,1125,4837,0,0,,1
w10103338,v47iguzl8m,Nick_Dissertation_EX2_EP,1,86,2022-04-19T20:10:07+00:00,3.2892680168152,3,Pure_Forward.csv,READVersionA.csv,"Read Pure F A","Read Pure F A",BREAKABLE,GLASS,Study1,F,77,28,Test,User,-,,Recall,Recall1,2979,glass,100,1435,2673,1,1,,1
w10103338,v47iguzl8m,Nick_Dissertation_EX2_EP,1,87,2022-04-19T20:10:09+00:00,2.7500820159912,3,Pure_Forward.csv,READVersionA.csv,"Read Pure F A","Read Pure F A",WINDSHIELD,CAR,Study1,F,67,45,Test,User,-,,Recall,Recall1,2489,wiper,25,1349,2132,0,0,,1
w10103338,v47iguzl8m,Nick_Dissertation_EX2_EP,1,88,2022-04-19T20:10:13+00:00,3.202672958374,3,Pure_Forward.csv,READVersionA.csv,"Read Pure F A","Read Pure F A",DIGESTION,STOMACH,Study1,F,7,46,Test,User,-,,Recall,Recall1,2921,stomach,100,1576,2569,1,1,,1
w10103338,v47iguzl8m,Nick_Dissertation_EX2_EP,1,89,2022-04-19T20:10:33+00:00,20.083461046219,3,Pure_Forward.csv,READVersionA.csv,"Read Pure F A","Read Pure F A",TRUTHFUL,HONEST,Study1,F,83,8,Test,User,-,,Recall,Recall1,19811,liar,0,16932,19532,0,0,,1
w10103338,v47iguzl8m,Nick_Dissertation_EX2_EP,1,90,2022-04-19T20:10:36+00:00,2.8569111824036,3,Pure_Forward.csv,READVersionA.csv,"Read Pure F A","Read Pure F A",NAP,SLEEP,Study1,F,84,43,Test,User,-,,Recall,Recall1,2574,bed,25,1972,2266,0,0,,1
w10103338,v47iguzl8m,Nick_Dissertation_EX2_EP,1,91,2022-04-19T20:10:42+00:00,6.8959097862244,3,Pure_Forward.csv,READVersionA.csv,"Read Pure F A","Read Pure F A",ORCHID,FLOWER,Study1,F,24,13,Test,User,-,,Recall,Recall1,6578,tree,20,1407,6401,0,0,,1
w10103338,v47iguzl8m,Nick_Dissertation_EX2_EP,1,92,2022-04-19T20:10:46+00:00,3.7116360664368,3,Pure_Forward.csv,READVersionA.csv,"Read Pure F A","Read Pure F A",PANTHER,CAT,Study1,F,76,31,Test,User,-,,Recall,Recall1,3424,black,25,2127,3199,0,0,,1
w10103338,v47iguzl8m,Nick_Dissertation_EX2_EP,1,93,2022-04-19T20:10:51+00:00,4.7481589317322,3,Pure_Forward.csv,READVersionA.csv,"Read Pure F A","Read Pure F A",SWAN,BIRD,Study1,F,14,33,Test,User,-,,Recall,Recall1,4355,lake,0,2713,3393,0,0,,1
w10103338,v47iguzl8m,Nick_Dissertation_EX2_EP,1,94,2022-04-19T20:10:55+00:00,3.8360052108765,3,Pure_Forward.csv,READVersionA.csv,"Read Pure F A","Read Pure F A",SARDINE,FISH,Study1,F,80,16,Test,User,-,,Recall,Recall1,3581,can,0,3191,3334,0,0,,1
w10103338,v47iguzl8m,Nick_Dissertation_EX2_EP,1,95,2022-04-19T20:11:21+00:00,26.436465978622,3,Pure_Forward.csv,READVersionA.csv,"Read Pure F A","Read Pure F A",,,,,,0,Instruct,-,10,"You will now be presented with a new set of word pairs. Please study each pair. Remember that your memory will be tested! Each pair will be displayed on the computer screen and will automatically advance to the next pair. Press ENTER when you are ready to begin.",Initial_Instruct,Instruct4,26146,,,-1,-1,,,,1
w10103338,v47iguzl8m,Nick_Dissertation_EX2_EP,1,96,2022-04-19T20:11:30+00:00,8.3222517967224,3,Pure_Forward.csv,READVersionA.csv,"Read Pure F A","Read Pure F A",CAMP,ADVENTURE,BUFFER3,Buffer,95,53,STUDY,8,8,,Study/JOL,BUFFER3,8010,,,-1,-1,,,,1
w10103338,v47iguzl8m,Nick_Dissertation_EX2_EP,1,97,2022-04-19T20:11:38+00:00,8.3083021640778,3,Pure_Forward.csv,READVersionA.csv,"Read Pure F A","Read Pure F A",CARROT,POTATO,BUFFER3,Buffer,91,55,STUDY,8,8,,Study/JOL,BUFFER3,8008,,,-1,-1,,,,1
w10103338,v47iguzl8m,Nick_Dissertation_EX2_EP,1,98,2022-04-19T20:11:46+00:00,8.2926008701324,3,Pure_Forward.csv,READVersionA.csv,"Read Pure F A","Read Pure F A",SHRIMP,FISH,BUFFER3,Buffer,93,54,STUDY,8,8,,Study/JOL,BUFFER3,8003,,,-1,-1,,,,1
w10103338,v47iguzl8m,Nick_Dissertation_EX2_EP,1,99,2022-04-19T20:11:54+00:00,8.2901329994202,3,Pure_Forward.csv,READVersionA.csv,"Read Pure F A","Read Pure F A",ICE,FROZEN,BUFFER3,Buffer,94,56,STUDY,8,8,,Study/JOL,BUFFER3,8003,,,-1,-1,,,,1
w10103338,v47iguzl8m,Nick_Dissertation_EX2_EP,1,100,2022-04-19T20:12:03+00:00,8.3275110721588,3,Pure_Forward.csv,READVersionA.csv,"Read Pure F A","Read Pure F A",NOODLE,STRING,BUFFER3,Buffer,92,52,STUDY,8,8,,Study/JOL,BUFFER3,8009,,,-1,-1,,,,1
w10103338,v47iguzl8m,Nick_Dissertation_EX2_EP,1,101,2022-04-19T20:12:11+00:00,8.3038129806519,3,Pure_Forward.csv,READVersionA.csv,"Read Pure F A","Read Pure F A",FAMINE,HUNGER,Study2,F,110,71,STUDY,8,8,,Study/JOL,"Study Phase2",8005,,,-1,-1,,,,1
w10103338,v47iguzl8m,Nick_Dissertation_EX2_EP,1,102,2022-04-19T20:12:19+00:00,8.3038330078125,3,Pure_Forward.csv,READVersionA.csv,"Read Pure F A","Read Pure F A",WASP,BUG,Study2,F,102,69,STUDY,8,8,,Study/JOL,"Study Phase2",8009,,,-1,-1,,,,1
w10103338,v47iguzl8m,Nick_Dissertation_EX2_EP,1,103,2022-04-19T20:12:28+00:00,8.3030409812927,3,Pure_Forward.csv,READVersionA.csv,"Read Pure F A","Read Pure F A",DIVISION,MATH,Study2,F,103,75,STUDY,8,8,,Study/JOL,"Study Phase2",8006,,,-1,-1,,,,1
w10103338,v47iguzl8m,Nick_Dissertation_EX2_EP,1,104,2022-04-19T20:12:36+00:00,8.3116779327393,3,Pure_Forward.csv,READVersionA.csv,"Read Pure F A","Read Pure F A",ATTORNEY,LAW,Study2,F,104,61,STUDY,8,8,,Study/JOL,"Study Phase2",8004,,,-1,-1,,,,1
w10103338,v47iguzl8m,Nick_Dissertation_EX2_EP,1,105,2022-04-19T20:12:44+00:00,8.3166210651398,3,Pure_Forward.csv,READVersionA.csv,"Read Pure F A","Read Pure F A",BLAZE,FIRE,Study2,F,115,59,STUDY,8,8,,Study/JOL,"Study Phase2",8008,,,-1,-1,,,,1
w10103338,v47iguzl8m,Nick_Dissertation_EX2_EP,1,106,2022-04-19T20:12:53+00:00,8.3459539413452,3,Pure_Forward.csv,READVersionA.csv,"Read Pure F A","Read Pure F A",CACTUS,PLANT,Study2,F,158,81,STUDY,8,8,,Study/JOL,"Study Phase2",8003,,,-1,-1,,,,1
w10103338,v47iguzl8m,Nick_Dissertation_EX2_EP,1,107,2022-04-19T20:13:01+00:00,8.3091700077057,3,Pure_Forward.csv,READVersionA.csv,"Read Pure F A","Read Pure F A",STENCH,SMELL,Study2,F,112,72,STUDY,8,8,,Study/JOL,"Study Phase2",8010,,,-1,-1,,,,1
w10103338,v47iguzl8m,Nick_Dissertation_EX2_EP,1,108,2022-04-19T20:13:09+00:00,8.316798210144,3,Pure_Forward.csv,READVersionA.csv,"Read Pure F A","Read Pure F A",SHEARS,SCISSORS,Study2,F,172,85,STUDY,8,8,,Study/JOL,"Study Phase2",8004,,,-1,-1,,,,1
w10103338,v47iguzl8m,Nick_Dissertation_EX2_EP,1,109,2022-04-19T20:13:18+00:00,8.3067908287048,3,Pure_Forward.csv,READVersionA.csv,"Read Pure F A","Read Pure F A",RACKET,BALL,Study2,F,108,77,STUDY,8,8,,Study/JOL,"Study Phase2",8008,,,-1,-1,,,,1
w10103338,v47iguzl8m,Nick_Dissertation_EX2_EP,1,110,2022-04-19T20:13:26+00:00,8.3286221027374,3,Pure_Forward.csv,READVersionA.csv,"Read Pure F A","Read Pure F A",SIP,DRINK,Study2,F,97,73,STUDY,8,8,,Study/JOL,"Study Phase2",8010,,,-1,-1,,,,1
w10103338,v47iguzl8m,Nick_Dissertation_EX2_EP,1,111,2022-04-19T20:13:34+00:00,8.3154809474945,3,Pure_Forward.csv,READVersionA.csv,"Read Pure F A","Read Pure F A",MULE,DONKEY,Study2,F,168,64,STUDY,8,8,,Study/JOL,"Study Phase2",8007,,,-1,-1,,,,1
w10103338,v47iguzl8m,Nick_Dissertation_EX2_EP,1,112,2022-04-19T20:13:43+00:00,8.2930080890656,3,Pure_Forward.csv,READVersionA.csv,"Read Pure F A","Read Pure F A",LATCH,KEY,Study2,F,106,76,STUDY,8,8,,Study/JOL,"Study Phase2",8003,,,-1,-1,,,,1
w10103338,v47iguzl8m,Nick_Dissertation_EX2_EP,1,113,2022-04-19T20:13:51+00:00,8.3322238922119,3,Pure_Forward.csv,READVersionA.csv,"Read Pure F A","Read Pure F A",CLUE,GAME,Study2,F,157,78,STUDY,8,8,,Study/JOL,"Study Phase2",8010,,,-1,-1,,,,1
w10103338,v47iguzl8m,Nick_Dissertation_EX2_EP,1,114,2022-04-19T20:13:59+00:00,8.3170609474182,3,Pure_Forward.csv,READVersionA.csv,"Read Pure F A","Read Pure F A",DINE,EAT,Study2,F,171,89,STUDY,8,8,,Study/JOL,"Study Phase2",8008,,,-1,-1,,,,1
w10103338,v47iguzl8m,Nick_Dissertation_EX2_EP,1,115,2022-04-19T20:14:07+00:00,8.2988209724426,3,Pure_Forward.csv,READVersionA.csv,"Read Pure F A","Read Pure F A",PILOT,PLANE,Study2,F,114,91,STUDY,8,8,,Study/JOL,"Study Phase2",8004,,,-1,-1,,,,1
w10103338,v47iguzl8m,Nick_Dissertation_EX2_EP,1,116,2022-04-19T20:14:16+00:00,8.3052520751953,3,Pure_Forward.csv,READVersionA.csv,"Read Pure F A","Read Pure F A",FURRY,DOG,Study2,F,162,63,STUDY,8,8,,Study/JOL,"Study Phase2",8005,,,-1,-1,,,,1
w10103338,v47iguzl8m,Nick_Dissertation_EX2_EP,1,117,2022-04-19T20:14:24+00:00,8.3203730583191,3,Pure_Forward.csv,READVersionA.csv,"Read Pure F A","Read Pure F A",DROWSY,SLEEP,Study2,F,111,84,STUDY,8,8,,Study/JOL,"Study Phase2",8011,,,-1,-1,,,,1
w10103338,v47iguzl8m,Nick_Dissertation_EX2_EP,1,118,2022-04-19T20:14:32+00:00,8.3162870407104,3,Pure_Forward.csv,READVersionA.csv,"Read Pure F A","Read Pure F A",FANTASTIC,GREAT,Study2,F,105,65,STUDY,8,8,,Study/JOL,"Study Phase2",8008,,,-1,-1,,,,1
w10103338,v47iguzl8m,Nick_Dissertation_EX2_EP,1,119,2022-04-19T20:14:41+00:00,8.3086998462677,3,Pure_Forward.csv,READVersionA.csv,"Read Pure F A","Read Pure F A",FEUD,FIGHT,Study2,F,173,62,STUDY,8,8,,Study/JOL,"Study Phase2",8003,,,-1,-1,,,,1
w10103338,v47iguzl8m,Nick_Dissertation_EX2_EP,1,120,2022-04-19T20:14:49+00:00,8.3174719810486,3,Pure_Forward.csv,READVersionA.csv,"Read Pure F A","Read Pure F A",CREDIT,CARD,Study1,F,23,23,STUDY,8,8,,Study/JOL,"Study Phase2",8003,,,-1,-1,,,,1
w10103338,v47iguzl8m,Nick_Dissertation_EX2_EP,1,121,2022-04-19T20:14:57+00:00,8.298180103302,3,Pure_Forward.csv,READVersionA.csv,"Read Pure F A","Read Pure F A",LITTER,TRASH,Study2,F,163,94,STUDY,8,8,,Study/JOL,"Study Phase2",8007,,,-1,-1,,,,1
w10103338,v47iguzl8m,Nick_Dissertation_EX2_EP,1,122,2022-04-19T20:15:06+00:00,8.3100740909576,3,Pure_Forward.csv,READVersionA.csv,"Read Pure F A","Read Pure F A",DRIVER,CAR,Study2,F,166,96,STUDY,8,8,,Study/JOL,"Study Phase2",8003,,,-1,-1,,,,1
w10103338,v47iguzl8m,Nick_Dissertation_EX2_EP,1,123,2022-04-19T20:15:14+00:00,8.3224937915802,3,Pure_Forward.csv,READVersionA.csv,"Read Pure F A","Read Pure F A",CAVE,DARK,Study2,F,98,79,STUDY,8,8,,Study/JOL,"Study Phase2",8009,,,-1,-1,,,,1
w10103338,v47iguzl8m,Nick_Dissertation_EX2_EP,1,124,2022-04-19T20:15:22+00:00,8.2909460067749,3,Pure_Forward.csv,READVersionA.csv,"Read Pure F A","Read Pure F A",ENOUGH,FULL,Study2,F,96,88,STUDY,8,8,,Study/JOL,"Study Phase2",8003,,,-1,-1,,,,1
w10103338,v47iguzl8m,Nick_Dissertation_EX2_EP,1,125,2022-04-19T20:15:31+00:00,8.3154921531677,3,Pure_Forward.csv,READVersionA.csv,"Read Pure F A","Read Pure F A",CHILI,HOT,Study2,F,107,70,STUDY,8,8,,Study/JOL,"Study Phase2",8004,,,-1,-1,,,,1
w10103338,v47iguzl8m,Nick_Dissertation_EX2_EP,1,126,2022-04-19T20:15:39+00:00,8.3557150363922,3,Pure_Forward.csv,READVersionA.csv,"Read Pure F A","Read Pure F A",CHOP,CUT,Study2,F,167,86,STUDY,8,8,,Study/JOL,"Study Phase2",8010,,,-1,-1,,,,1
w10103338,v47iguzl8m,Nick_Dissertation_EX2_EP,1,127,2022-04-19T20:15:47+00:00,8.3474998474121,3,Pure_Forward.csv,READVersionA.csv,"Read Pure F A","Read Pure F A",CHILL,COLD,Study2,F,174,74,STUDY,8,8,,Study/JOL,"Study Phase2",8010,,,-1,-1,,,,1
w10103338,v47iguzl8m,Nick_Dissertation_EX2_EP,1,128,2022-04-19T20:15:56+00:00,8.3522009849548,3,Pure_Forward.csv,READVersionA.csv,"Read Pure F A","Read Pure F A",DETECTIVE,MYSTERY,Study2,F,160,57,STUDY,8,8,,Study/JOL,"Study Phase2",8008,,,-1,-1,,,,1
w10103338,v47iguzl8m,Nick_Dissertation_EX2_EP,1,129,2022-04-19T20:16:04+00:00,8.30717420578,3,Pure_Forward.csv,READVersionA.csv,"Read Pure F A","Read Pure F A",SHOELACE,TIE,Study2,F,159,87,STUDY,8,8,,Study/JOL,"Study Phase2",8004,,,-1,-1,,,,1
w10103338,v47iguzl8m,Nick_Dissertation_EX2_EP,1,130,2022-04-19T20:16:12+00:00,8.3121438026428,3,Pure_Forward.csv,READVersionA.csv,"Read Pure F A","Read Pure F A",CHERRY,RED,Study2,F,164,93,STUDY,8,8,,Study/JOL,"Study Phase2",8004,,,-1,-1,,,,0.95
w10103338,v47iguzl8m,Nick_Dissertation_EX2_EP,1,131,2022-04-19T20:16:21+00:00,8.3190670013428,3,Pure_Forward.csv,READVersionA.csv,"Read Pure F A","Read Pure F A",ATTIRE,CLOTHES,Study2,F,113,90,STUDY,8,8,,Study/JOL,"Study Phase2",8007,,,-1,-1,,,,1
w10103338,v47iguzl8m,Nick_Dissertation_EX2_EP,1,132,2022-04-19T20:16:29+00:00,8.3267760276794,3,Pure_Forward.csv,READVersionA.csv,"Read Pure F A","Read Pure F A",AFFECTION,LOVE,Study2,F,175,82,STUDY,8,8,,Study/JOL,"Study Phase2",8006,,,-1,-1,,,,1
w10103338,v47iguzl8m,Nick_Dissertation_EX2_EP,1,133,2022-04-19T20:16:37+00:00,8.3059849739075,3,Pure_Forward.csv,READVersionA.csv,"Read Pure F A","Read Pure F A",INCENSE,SMELL,Study2,F,170,67,STUDY,8,8,,Study/JOL,"Study Phase2",8005,,,-1,-1,,,,1
w10103338,v47iguzl8m,Nick_Dissertation_EX2_EP,1,134,2022-04-19T20:16:46+00:00,8.3502721786499,3,Pure_Forward.csv,READVersionA.csv,"Read Pure F A","Read Pure F A",GROWTH,HEIGHT,Study2,F,100,66,STUDY,8,8,,Study/JOL,"Study Phase2",8003,,,-1,-1,,,,1
w10103338,v47iguzl8m,Nick_Dissertation_EX2_EP,1,135,2022-04-19T20:16:54+00:00,8.3023538589478,3,Pure_Forward.csv,READVersionA.csv,"Read Pure F A","Read Pure F A",BLAZE,FIRE,Study2,F,115,59,STUDY,8,8,,Study/JOL,"Study Phase2",8010,,,-1,-1,,,,1
w10103338,v47iguzl8m,Nick_Dissertation_EX2_EP,1,136,2022-04-19T20:17:02+00:00,8.3031411170959,3,Pure_Forward.csv,READVersionA.csv,"Read Pure F A","Read Pure F A",EXTENSION,LONG,Study2,F,156,92,STUDY,8,8,,Study/JOL,"Study Phase2",8009,,,-1,-1,,,,1
w10103338,v47iguzl8m,Nick_Dissertation_EX2_EP,1,137,2022-04-19T20:17:10+00:00,8.3080058097839,3,Pure_Forward.csv,READVersionA.csv,"Read Pure F A","Read Pure F A",CHORE,WORK,Study2,F,109,68,STUDY,8,8,,Study/JOL,"Study Phase2",8006,,,-1,-1,,,,1
w10103338,v47iguzl8m,Nick_Dissertation_EX2_EP,1,138,2022-04-19T20:17:19+00:00,8.3054440021515,3,Pure_Forward.csv,READVersionA.csv,"Read Pure F A","Read Pure F A",DOCUMENT,PAPER,Study2,F,169,60,STUDY,8,8,,Study/JOL,"Study Phase2",8009,,,-1,-1,,,,1
w10103338,v47iguzl8m,Nick_Dissertation_EX2_EP,1,139,2022-04-19T20:17:27+00:00,8.3098680973053,3,Pure_Forward.csv,READVersionA.csv,"Read Pure F A","Read Pure F A",ADJOURN,END,Study2,F,161,80,STUDY,8,8,,Study/JOL,"Study Phase2",8004,,,-1,-1,,,,1
w10103338,v47iguzl8m,Nick_Dissertation_EX2_EP,1,140,2022-04-19T20:17:35+00:00,8.3573660850525,3,Pure_Forward.csv,READVersionA.csv,"Read Pure F A","Read Pure F A",SCALP,HEAD,Study2,F,165,95,STUDY,8,8,,Study/JOL,"Study Phase2",8009,,,-1,-1,,,,1
w10103338,v47iguzl8m,Nick_Dissertation_EX2_EP,1,141,2022-04-19T20:17:44+00:00,8.2921710014343,3,Pure_Forward.csv,READVersionA.csv,"Read Pure F A","Read Pure F A",OCTOBER,SPOOKY,BUFFER4,Buffer,180,97,STUDY,8,8,,Study/JOL,BUFFER4,8004,,,-1,-1,,,,1
w10103338,v47iguzl8m,Nick_Dissertation_EX2_EP,1,142,2022-04-19T20:17:52+00:00,8.3613419532776,3,Pure_Forward.csv,READVersionA.csv,"Read Pure F A","Read Pure F A",MONTH,YEAR,BUFFER4,Buffer,177,100,STUDY,8,8,,Study/JOL,BUFFER4,8011,,,-1,-1,,,,1
w10103338,v47iguzl8m,Nick_Dissertation_EX2_EP,1,143,2022-04-19T20:18:00+00:00,8.3063099384308,3,Pure_Forward.csv,READVersionA.csv,"Read Pure F A","Read Pure F A",SPRING,MARCH,BUFFER4,Buffer,179,98,STUDY,8,8,,Study/JOL,BUFFER4,8003,,,-1,-1,,,,1
w10103338,v47iguzl8m,Nick_Dissertation_EX2_EP,1,144,2022-04-19T20:18:09+00:00,8.3084230422974,3,Pure_Forward.csv,READVersionA.csv,"Read Pure F A","Read Pure F A",TOOL,SHED,BUFFER4,Buffer,178,101,STUDY,8,8,,Study/JOL,BUFFER4,8004,,,-1,-1,,,,1
w10103338,v47iguzl8m,Nick_Dissertation_EX2_EP,1,145,2022-04-19T20:18:17+00:00,8.3991858959198,3,Pure_Forward.csv,READVersionA.csv,"Read Pure F A","Read Pure F A",DAYS,WEEKS,BUFFER4,Buffer,176,99,STUDY,8,8,,Study/JOL,BUFFER4,8006,,,-1,-1,,,,1
w10103338,v47iguzl8m,Nick_Dissertation_EX2_EP,1,146,2022-04-19T20:18:20+00:00,2.9162042140961,3,Pure_Forward.csv,READVersionA.csv,"Read Pure F A","Read Pure F A",,,,,,0,Instruct,User,-,"You have completed this section. Please press Enter.",Filler_Instruction,Instruct5,2631,,,-1,-1,,,,1
w10103338,v47iguzl8m,Nick_Dissertation_EX2_EP,1,147,2022-04-19T20:20:20+00:00,120.30660891533,3,Pure_Forward.csv,READVersionA.csv,"Read Pure F A","Read Pure F A",,,,,,0,FreeRecall,120,120,"Please list the 50 US states in reverse alphabetical order (z - a). The task will automatically advance to the next screen after two minutes.",,Filler2,120008,"Alabama Alaska Arizona Arkansas California Colorado Connecticut Delaware Florida Georgia Hawaii Idaho Illinois Indiana Iowa Kansas Kentucky Louisiana Maine Maryland Massachusetts Michigan Minnesota Mississippi Missouri Montana Nebraska Nevada New Hampshire New Jersey New Mexico New York North Carolina North Dakota Ohio Oklahoma Oregon Pennsylvania Rhode Island South Carolina South Dakota Tennessee Texas Utah Vermont Virginia Washington West Virginia Wisconsin Wyoming",0,-1,-1,0,0,,0.635
w10103338,v47iguzl8m,Nick_Dissertation_EX2_EP,1,148,2022-04-19T20:20:47+00:00,26.9510679245,3,Pure_Forward.csv,READVersionA.csv,"Read Pure F A","Read Pure F A",,,,,,0,Instruct,-,10,"You will now be presented with the first word from each of the previously studied item pairs. Please type the missing word. If you do not know the word, you may guess or press Enter to skip forward to the next pair.",,Instruct6,26468,,,-1,-1,,,,1
w10103338,v47iguzl8m,Nick_Dissertation_EX2_EP,1,149,2022-04-19T20:20:52+00:00,4.7739169597626,3,Pure_Forward.csv,READVersionA.csv,"Read Pure F A","Read Pure F A",LITTER,TRASH,Study2,F,163,94,Test,User,-,,Recall,Recall2,4328,cat,25,2706,4047,0,0,,1
w10103338,v47iguzl8m,Nick_Dissertation_EX2_EP,1,150,2022-04-19T20:20:55+00:00,2.9201979637146,3,Pure_Forward.csv,READVersionA.csv,"Read Pure F A","Read Pure F A",DROWSY,SLEEP,Study2,F,111,84,Test,User,-,,Recall,Recall2,2669,sleep,100,1191,2289,1,1,,1
w10103338,v47iguzl8m,Nick_Dissertation_EX2_EP,1,151,2022-04-19T20:20:57+00:00,2.2747302055359,3,Pure_Forward.csv,READVersionA.csv,"Read Pure F A","Read Pure F A",RACKET,BALL,Study2,F,108,77,Test,User,-,,Recall,Recall2,1990,ball,100,1267,1774,1,1,,1
w10103338,v47iguzl8m,Nick_Dissertation_EX2_EP,1,152,2022-04-19T20:21:00+00:00,2.6302108764648,3,Pure_Forward.csv,READVersionA.csv,"Read Pure F A","Read Pure F A",CACTUS,PLANT,Study2,F,158,81,Test,User,-,,Recall,Recall2,2380,plant,100,1428,1927,1,1,,1
w10103338,v47iguzl8m,Nick_Dissertation_EX2_EP,1,153,2022-04-19T20:21:10+00:00,9.7475090026855,3,Pure_Forward.csv,READVersionA.csv,"Read Pure F A","Read Pure F A",PILOT,PLANE,Study2,F,114,91,Test,User,-,,Recall,Recall2,9470,jet,25,7637,9295,0,0,,1
w10103338,v47iguzl8m,Nick_Dissertation_EX2_EP,1,154,2022-04-19T20:21:16+00:00,6.7414801120758,3,Pure_Forward.csv,READVersionA.csv,"Read Pure F A","Read Pure F A",CHORE,WORK,Study2,F,109,68,Test,User,-,,Recall,Recall2,6445,clean,0,3032,5903,0,0,,1
w10103338,v47iguzl8m,Nick_Dissertation_EX2_EP,1,155,2022-04-19T20:21:20+00:00,3.4760420322418,3,Pure_Forward.csv,READVersionA.csv,"Read Pure F A","Read Pure F A",DINE,EAT,Study2,F,171,89,Test,User,-,,Recall,Recall2,3084,eat,100,2217,2566,1,1,,1
w10103338,v47iguzl8m,Nick_Dissertation_EX2_EP,1,156,2022-04-19T20:21:24+00:00,3.7566959857941,3,Pure_Forward.csv,READVersionA.csv,"Read Pure F A","Read Pure F A",LATCH,KEY,Study2,F,106,76,Test,User,-,,Recall,Recall2,3463,door,0,2314,3295,0,0,,1
w10103338,v47iguzl8m,Nick_Dissertation_EX2_EP,1,157,2022-04-19T20:21:34+00:00,10.109722852707,3,Pure_Forward.csv,READVersionA.csv,"Read Pure F A","Read Pure F A",INCENSE,SMELL,Study2,F,170,67,Test,User,-,,Recall,Recall2,9820,people,36.363636363636,6592,8466,0,0,,1
w10103338,v47iguzl8m,Nick_Dissertation_EX2_EP,1,158,2022-04-19T20:21:40+00:00,5.8499691486359,3,Pure_Forward.csv,READVersionA.csv,"Read Pure F A","Read Pure F A",ATTIRE,CLOTHES,Study2,F,113,90,Test,User,-,,Recall,Recall2,5406,clothes,100,2537,5243,1,1,,1
w10103338,v47iguzl8m,Nick_Dissertation_EX2_EP,1,159,2022-04-19T20:21:44+00:00,4.2563028335571,3,Pure_Forward.csv,READVersionA.csv,"Read Pure F A","Read Pure F A",SHOELACE,TIE,Study2,F,159,87,Test,User,-,,Recall,Recall2,3965,feet,28.571428571429,3224,3819,0,0,,1
w10103338,v47iguzl8m,Nick_Dissertation_EX2_EP,1,160,2022-04-19T20:21:47+00:00,2.9041850566864,3,Pure_Forward.csv,READVersionA.csv,"Read Pure F A","Read Pure F A",DETECTIVE,MYSTERY,Study2,F,160,57,Test,User,-,,Recall,Recall2,2633,spy,40,1329,1987,0,0,,1
w10103338,v47iguzl8m,Nick_Dissertation_EX2_EP,1,161,2022-04-19T20:21:49+00:00,2.6186819076538,3,Pure_Forward.csv,READVersionA.csv,"Read Pure F A","Read Pure F A",EXTENSION,LONG,Study2,F,156,92,Test,User,-,,Recall,Recall2,2365,cord,25,1422,2205,0,0,,1
w10103338,v47iguzl8m,Nick_Dissertation_EX2_EP,1,162,2022-04-19T20:21:56+00:00,6.687597990036,3,Pure_Forward.csv,READVersionA.csv,"Read Pure F A","Read Pure F A",SHEARS,SCISSORS,Study2,F,172,85,Test,User,-,,Recall,Recall2,6403,sciccors,75,2098,5826,0,1,,1
w10103338,v47iguzl8m,Nick_Dissertation_EX2_EP,1,163,2022-04-19T20:21:58+00:00,2.0482361316681,3,Pure_Forward.csv,READVersionA.csv,"Read Pure F A","Read Pure F A",CREDIT,CARD,Study1,F,23,23,Test,User,-,,Recall,Recall2,1790,card,100,1131,1635,1,1,,1
w10103338,v47iguzl8m,Nick_Dissertation_EX2_EP,1,164,2022-04-19T20:22:02+00:00,4.2838649749756,3,Pure_Forward.csv,READVersionA.csv,"Read Pure F A","Read Pure F A",FAMINE,HUNGER,Study2,F,110,71,Test,User,-,,Recall,Recall2,3968,food,0,1808,2212,0,0,,1
w10103338,v47iguzl8m,Nick_Dissertation_EX2_EP,1,165,2022-04-19T20:22:08+00:00,5.3189539909363,3,Pure_Forward.csv,READVersionA.csv,"Read Pure F A","Read Pure F A",FEUD,FIGHT,Study2,F,173,62,Test,User,-,,Recall,Recall2,5019,fight,100,1576,4745,1,1,,1
w10103338,v47iguzl8m,Nick_Dissertation_EX2_EP,1,166,2022-04-19T20:22:14+00:00,6.246973991394,3,Pure_Forward.csv,READVersionA.csv,"Read Pure F A","Read Pure F A",DIVISION,MATH,Study2,F,103,75,Test,User,-,,Recall,Recall2,5950,math,100,5220,5660,1,1,,1
w10103338,v47iguzl8m,Nick_Dissertation_EX2_EP,1,167,2022-04-19T20:22:17+00:00,2.874361038208,3,Pure_Forward.csv,READVersionA.csv,"Read Pure F A","Read Pure F A",STENCH,SMELL,Study2,F,112,72,Test,User,-,,Recall,Recall2,2591,smell,100,1583,2385,1,1,,1
w10103338,v47iguzl8m,Nick_Dissertation_EX2_EP,1,168,2022-04-19T20:22:22+00:00,5.1432030200958,3,Pure_Forward.csv,READVersionA.csv,"Read Pure F A","Read Pure F A",FANTASTIC,GREAT,Study2,F,105,65,Test,User,-,,Recall,Recall2,4848,wonderful,14.285714285714,2660,4612,0,0,,1
w10103338,v47iguzl8m,Nick_Dissertation_EX2_EP,1,169,2022-04-19T20:22:26+00:00,3.8666250705719,3,Pure_Forward.csv,READVersionA.csv,"Read Pure F A","Read Pure F A",DOCUMENT,PAPER,Study2,F,169,60,Test,User,-,,Recall,Recall2,3543,paper,100,1217,2616,1,1,,1
w10103338,v47iguzl8m,Nick_Dissertation_EX2_EP,1,170,2022-04-19T20:22:28+00:00,1.7363967895508,3,Pure_Forward.csv,READVersionA.csv,"Read Pure F A","Read Pure F A",CAVE,DARK,Study2,F,98,79,Test,User,-,,Recall,Recall2,1476,man,28.571428571429,1125,1278,0,0,,1
w10103338,v47iguzl8m,Nick_Dissertation_EX2_EP,1,171,2022-04-19T20:22:30+00:00,2.5178821086884,3,Pure_Forward.csv,READVersionA.csv,"Read Pure F A","Read Pure F A",SCALP,HEAD,Study2,F,165,95,Test,User,-,,Recall,Recall2,2262,bald,50,1664,2084,0,0,,1
w10103338,v47iguzl8m,Nick_Dissertation_EX2_EP,1,172,2022-04-19T20:22:32+00:00,2.2389080524445,3,Pure_Forward.csv,READVersionA.csv,"Read Pure F A","Read Pure F A",ENOUGH,FULL,Study2,F,96,88,Test,User,-,,Recall,Recall2,1967,sadi,0,1466,1716,0,0,,1
w10103338,v47iguzl8m,Nick_Dissertation_EX2_EP,1,173,2022-04-19T20:22:35+00:00,3.0209429264069,3,Pure_Forward.csv,READVersionA.csv,"Read Pure F A","Read Pure F A",CHILI,HOT,Study2,F,107,70,Test,User,-,,Recall,Recall2,2759,cheese,22.222222222222,1839,2615,0,0,,1
w10103338,v47iguzl8m,Nick_Dissertation_EX2_EP,1,174,2022-04-19T20:22:40+00:00,5.1587219238281,3,Pure_Forward.csv,READVersionA.csv,"Read Pure F A","Read Pure F A",BLAZE,FIRE,Study2,F,115,59,Test,User,-,,Recall,Recall2,4885,fire,100,2402,3961,1,1,,1
w10103338,v47iguzl8m,Nick_Dissertation_EX2_EP,1,175,2022-04-19T20:22:43+00:00,2.5675580501556,3,Pure_Forward.csv,READVersionA.csv,"Read Pure F A","Read Pure F A",CHILL,COLD,Study2,F,174,74,Test,User,-,,Recall,Recall2,2293,cold,100,1174,2019,1,1,,1
w10103338,v47iguzl8m,Nick_Dissertation_EX2_EP,1,176,2022-04-19T20:22:47+00:00,4.1997101306915,3,Pure_Forward.csv,READVersionA.csv,"Read Pure F A","Read Pure F A",ADJOURN,END,Study2,F,161,80,Test,User,-,,Recall,Recall2,3944,judge,25,2080,3738,0,0,,1
w10103338,v47iguzl8m,Nick_Dissertation_EX2_EP,1,177,2022-04-19T20:22:50+00:00,3.1821618080139,3,Pure_Forward.csv,READVersionA.csv,"Read Pure F A","Read Pure F A",CLUE,GAME,Study2,F,157,78,Test,User,-,,Recall,Recall2,2798,dectective,14.285714285714,1282,2675,0,0,,1
w10103338,v47iguzl8m,Nick_Dissertation_EX2_EP,1,178,2022-04-19T20:22:53+00:00,2.4283411502838,3,Pure_Forward.csv,READVersionA.csv,"Read Pure F A","Read Pure F A",SIP,DRINK,Study2,F,97,73,Test,User,-,,Recall,Recall2,2154,drink,100,1249,1916,1,1,,1
w10103338,v47iguzl8m,Nick_Dissertation_EX2_EP,1,179,2022-04-19T20:23:00+00:00,7.4572539329529,3,Pure_Forward.csv,READVersionA.csv,"Read Pure F A","Read Pure F A",MULE,DONKEY,Study2,F,168,64,Test,User,-,,Recall,Recall2,7141,camel,18.181818181818,6323,6732,0,0,,0.889
w10103338,v47iguzl8m,Nick_Dissertation_EX2_EP,1,180,2022-04-19T20:23:03+00:00,2.3979580402374,3,Pure_Forward.csv,READVersionA.csv,"Read Pure F A","Read Pure F A",WASP,BUG,Study2,F,102,69,Test,User,-,,Recall,Recall2,2097,bug,100,1174,1789,1,1,,1
w10103338,v47iguzl8m,Nick_Dissertation_EX2_EP,1,181,2022-04-19T20:23:07+00:00,4.7126519680023,3,Pure_Forward.csv,READVersionA.csv,"Read Pure F A","Read Pure F A",DRIVER,CAR,Study2,F,166,96,Test,User,-,,Recall,Recall2,4463,car,100,3794,4102,1,1,,0.8
w10103338,v47iguzl8m,Nick_Dissertation_EX2_EP,1,182,2022-04-19T20:23:28+00:00,20.126600980759,3,Pure_Forward.csv,READVersionA.csv,"Read Pure F A","Read Pure F A",FURRY,DOG,Study2,F,162,63,Test,User,-,,Recall,Recall2,18540,cat,0,16074,18091,0,0,,0.59
w10103338,v47iguzl8m,Nick_Dissertation_EX2_EP,1,183,2022-04-19T20:23:30+00:00,2.7521460056305,3,Pure_Forward.csv,READVersionA.csv,"Read Pure F A","Read Pure F A",BLAZE,FIRE,Study2,F,115,59,Test,User,-,,Recall,Recall2,2335,fire,100,1057,2085,1,1,,1
w10103338,v47iguzl8m,Nick_Dissertation_EX2_EP,1,184,2022-04-19T20:23:47+00:00,16.973165988922,3,Pure_Forward.csv,READVersionA.csv,"Read Pure F A","Read Pure F A",GROWTH,HEIGHT,Study2,F,100,66,Test,User,-,,Recall,Recall2,16700,height,100,15621,16480,1,1,,0.548
w10103338,v47iguzl8m,Nick_Dissertation_EX2_EP,1,185,2022-04-19T20:23:50+00:00,3.1024510860443,3,Pure_Forward.csv,READVersionA.csv,"Read Pure F A","Read Pure F A",CHERRY,RED,Study2,F,164,93,Test,User,-,,Recall,Recall2,2680,blossom,0,1624,2509,0,0,,1
w10103338,v47iguzl8m,Nick_Dissertation_EX2_EP,1,186,2022-04-19T20:23:53+00:00,2.7099170684814,3,Pure_Forward.csv,READVersionA.csv,"Read Pure F A","Read Pure F A",ATTORNEY,LAW,Study2,F,104,61,Test,User,-,,Recall,Recall2,2422,judge,0,1677,2276,0,0,,1
w10103338,v47iguzl8m,Nick_Dissertation_EX2_EP,1,187,2022-04-19T20:23:55+00:00,2.3957579135895,3,Pure_Forward.csv,READVersionA.csv,"Read Pure F A","Read Pure F A",CHOP,CUT,Study2,F,167,86,Test,User,-,,Recall,Recall2,2126,cut,100,1735,1966,1,1,,1
w10103338,v47iguzl8m,Nick_Dissertation_EX2_EP,1,188,2022-04-19T20:23:58+00:00,2.1846480369568,3,Pure_Forward.csv,READVersionA.csv,"Read Pure F A","Read Pure F A",AFFECTION,LOVE,Study2,F,175,82,Test,User,-,,Recall,Recall2,1911,love,100,1422,1760,1,1,,1
w10103338,v47iguzl8m,Nick_Dissertation_EX2_EP,1,189,2022-04-19T20:23:59+00:00,1.7677309513092,3,Pure_Forward.csv,READVersionA.csv,"Read Pure F A","Read Pure F A",,,,,,0,Instruct,User,-,"You have completed this section. Please press Enter.",,Instruct7,1497,,,-1,-1,,,,1
