Username,ID,ExperimentName,Session,Trial,Date,TimeDif,"Condition Number","Stimuli File","Order File","Condition Description","Condition Notes",Stimuli*Cue,Stimuli*Answer,Stimuli*Shuffle,"Stimuli*Stimuli Notes",Stimuli*Value,Procedure*Item,"Procedure*Trial Type","Procedure*Max Time","Procedure*Min Time",Procedure*Text,"Procedure*Procedure Notes",Procedure*Shuffle,Response*RT,Response*Response,Response*Accuracy,Response*RTfirst,Response*RTlast,Response*strictAcc,Response*lenientAcc,Response*focus,Response*Focus
w10126362,js777kqnr7,Nick_Dissertation_EX2_EP,1,1,2022-01-04T19:01:22+00:00,10.96918797493,4,Pure_Forward.csv,READVersionB.csv,"Read Pure F B","Read Pure F B",,,,,,0,Instruct,-,10,"Please study each of the following word pairs. Remember that your memory will be tested! Each pair will be displayed on the computer screen and will automatically advance to the next pair. Press ENTER when you are ready to begin.",Initial_Instruct,Instruct1,10730,,,-1,-1,,,,1
w10126362,js777kqnr7,Nick_Dissertation_EX2_EP,1,2,2022-01-04T19:01:31+00:00,8.36994099617,4,Pure_Forward.csv,READVersionB.csv,"Read Pure F B","Read Pure F B",NOODLE,STRING,BUFFER3,Buffer,92,52,STUDY,8,8,,Study/JOL,BUFFER,8003,,,-1,-1,,,,1
w10126362,js777kqnr7,Nick_Dissertation_EX2_EP,1,3,2022-01-04T19:01:39+00:00,8.3346071243286,4,Pure_Forward.csv,READVersionB.csv,"Read Pure F B","Read Pure F B",ICE,FROZEN,BUFFER3,Buffer,94,55,STUDY,8,8,,Study/JOL,BUFFER,8003,,,-1,-1,,,,1
w10126362,js777kqnr7,Nick_Dissertation_EX2_EP,1,4,2022-01-04T19:01:48+00:00,8.3574488162994,4,Pure_Forward.csv,READVersionB.csv,"Read Pure F B","Read Pure F B",CARROT,POTATO,BUFFER3,Buffer,91,54,STUDY,8,8,,Study/JOL,BUFFER,8006,,,-1,-1,,,,1
w10126362,js777kqnr7,Nick_Dissertation_EX2_EP,1,5,2022-01-04T19:01:56+00:00,8.3267261981964,4,Pure_Forward.csv,READVersionB.csv,"Read Pure F B","Read Pure F B",CAMP,ADVENTURE,BUFFER3,Buffer,95,53,STUDY,8,8,,Study/JOL,BUFFER,8005,,,-1,-1,,,,1
w10126362,js777kqnr7,Nick_Dissertation_EX2_EP,1,6,2022-01-04T19:02:04+00:00,8.3560328483582,4,Pure_Forward.csv,READVersionB.csv,"Read Pure F B","Read Pure F B",SHRIMP,FISH,BUFFER3,Buffer,93,56,STUDY,8,8,,Study/JOL,BUFFER,8004,,,-1,-1,,,,1
w10126362,js777kqnr7,Nick_Dissertation_EX2_EP,1,7,2022-01-04T19:02:13+00:00,8.3367669582367,4,Pure_Forward.csv,READVersionB.csv,"Read Pure F B","Read Pure F B",GROWTH,HEIGHT,Study2,F,100,66,STUDY,8,8,,Study/JOL,"Study Phase",8003,,,-1,-1,,,,1
w10126362,js777kqnr7,Nick_Dissertation_EX2_EP,1,8,2022-01-04T19:02:21+00:00,8.3517541885376,4,Pure_Forward.csv,READVersionB.csv,"Read Pure F B","Read Pure F B",SIP,DRINK,Study2,F,97,88,STUDY,8,8,,Study/JOL,"Study Phase",8003,,,-1,-1,,,,1
w10126362,js777kqnr7,Nick_Dissertation_EX2_EP,1,9,2022-01-04T19:02:29+00:00,8.3436789512634,4,Pure_Forward.csv,READVersionB.csv,"Read Pure F B","Read Pure F B",DETECTIVE,MYSTERY,Study2,F,160,81,STUDY,8,8,,Study/JOL,"Study Phase",8003,,,-1,-1,,,,1
w10126362,js777kqnr7,Nick_Dissertation_EX2_EP,1,10,2022-01-04T19:02:38+00:00,8.3386609554291,4,Pure_Forward.csv,READVersionB.csv,"Read Pure F B","Read Pure F B",CAVE,DARK,Study2,F,98,69,STUDY,8,8,,Study/JOL,"Study Phase",8002,,,-1,-1,,,,1
w10126362,js777kqnr7,Nick_Dissertation_EX2_EP,1,11,2022-01-04T19:02:46+00:00,8.3314809799194,4,Pure_Forward.csv,READVersionB.csv,"Read Pure F B","Read Pure F B",CHOP,CUT,Study2,F,167,59,STUDY,8,8,,Study/JOL,"Study Phase",8002,,,-1,-1,,,,1
w10126362,js777kqnr7,Nick_Dissertation_EX2_EP,1,12,2022-01-04T19:02:54+00:00,8.3913459777832,4,Pure_Forward.csv,READVersionB.csv,"Read Pure F B","Read Pure F B",FURRY,DOG,Study2,F,162,68,STUDY,8,8,,Study/JOL,"Study Phase",8003,,,-1,-1,,,,1
w10126362,js777kqnr7,Nick_Dissertation_EX2_EP,1,13,2022-01-04T19:03:03+00:00,8.4422800540924,4,Pure_Forward.csv,READVersionB.csv,"Read Pure F B","Read Pure F B",REVENGE,EVEN,Study1,F,72,23,STUDY,8,8,,Study/JOL,"Study Phase",8003,,,-1,-1,,,,1
w10126362,js777kqnr7,Nick_Dissertation_EX2_EP,1,14,2022-01-04T19:03:11+00:00,8.3254930973053,4,Pure_Forward.csv,READVersionB.csv,"Read Pure F B","Read Pure F B",CHORE,WORK,Study2,F,109,90,STUDY,8,8,,Study/JOL,"Study Phase",8002,,,-1,-1,,,,1
w10126362,js777kqnr7,Nick_Dissertation_EX2_EP,1,15,2022-01-04T19:03:19+00:00,8.3230679035187,4,Pure_Forward.csv,READVersionB.csv,"Read Pure F B","Read Pure F B",FANTASTIC,GREAT,Study2,F,105,71,STUDY,8,8,,Study/JOL,"Study Phase",8002,,,-1,-1,,,,1
w10126362,js777kqnr7,Nick_Dissertation_EX2_EP,1,16,2022-01-04T19:03:28+00:00,8.3386950492859,4,Pure_Forward.csv,READVersionB.csv,"Read Pure F B","Read Pure F B",CHILI,HOT,Study2,F,107,72,STUDY,8,8,,Study/JOL,"Study Phase",8003,,,-1,-1,,,,1
w10126362,js777kqnr7,Nick_Dissertation_EX2_EP,1,17,2022-01-04T19:03:36+00:00,8.3409478664398,4,Pure_Forward.csv,READVersionB.csv,"Read Pure F B","Read Pure F B",DRIVER,CAR,Study2,F,166,84,STUDY,8,8,,Study/JOL,"Study Phase",8005,,,-1,-1,,,,1
w10126362,js777kqnr7,Nick_Dissertation_EX2_EP,1,18,2022-01-04T19:03:44+00:00,8.3413681983948,4,Pure_Forward.csv,READVersionB.csv,"Read Pure F B","Read Pure F B",SCALP,HEAD,Study2,F,165,94,STUDY,8,8,,Study/JOL,"Study Phase",8002,,,-1,-1,,,,1
w10126362,js777kqnr7,Nick_Dissertation_EX2_EP,1,19,2022-01-04T19:03:53+00:00,8.3394858837128,4,Pure_Forward.csv,READVersionB.csv,"Read Pure F B","Read Pure F B",STENCH,SMELL,Study2,F,112,74,STUDY,8,8,,Study/JOL,"Study Phase",8003,,,-1,-1,,,,1
w10126362,js777kqnr7,Nick_Dissertation_EX2_EP,1,20,2022-01-04T19:04:01+00:00,8.3569760322571,4,Pure_Forward.csv,READVersionB.csv,"Read Pure F B","Read Pure F B",CHERRY,RED,Study2,F,164,78,STUDY,8,8,,Study/JOL,"Study Phase",8003,,,-1,-1,,,,1
w10126362,js777kqnr7,Nick_Dissertation_EX2_EP,1,21,2022-01-04T19:04:09+00:00,8.3491659164429,4,Pure_Forward.csv,READVersionB.csv,"Read Pure F B","Read Pure F B",CHILL,COLD,Study2,F,174,76,STUDY,8,8,,Study/JOL,"Study Phase",8004,,,-1,-1,,,,1
w10126362,js777kqnr7,Nick_Dissertation_EX2_EP,1,22,2022-01-04T19:04:18+00:00,8.4550240039825,4,Pure_Forward.csv,READVersionB.csv,"Read Pure F B","Read Pure F B",ATTIRE,CLOTHES,Study2,F,113,87,STUDY,8,8,,Study/JOL,"Study Phase",8003,,,-1,-1,,,,1
w10126362,js777kqnr7,Nick_Dissertation_EX2_EP,1,23,2022-01-04T19:04:26+00:00,8.3980989456177,4,Pure_Forward.csv,READVersionB.csv,"Read Pure F B","Read Pure F B",FEUD,FIGHT,Study2,F,173,95,STUDY,8,8,,Study/JOL,"Study Phase",8002,,,-1,-1,,,,1
w10126362,js777kqnr7,Nick_Dissertation_EX2_EP,1,24,2022-01-04T19:04:35+00:00,8.34357213974,4,Pure_Forward.csv,READVersionB.csv,"Read Pure F B","Read Pure F B",CACTUS,PLANT,Study2,F,158,79,STUDY,8,8,,Study/JOL,"Study Phase",8006,,,-1,-1,,,,1
w10126362,js777kqnr7,Nick_Dissertation_EX2_EP,1,25,2022-01-04T19:04:43+00:00,8.3285369873047,4,Pure_Forward.csv,READVersionB.csv,"Read Pure F B","Read Pure F B",FAMINE,HUNGER,Study2,F,110,89,STUDY,8,8,,Study/JOL,"Study Phase",8003,,,-1,-1,,,,1
w10126362,js777kqnr7,Nick_Dissertation_EX2_EP,1,26,2022-01-04T19:04:51+00:00,8.340343952179,4,Pure_Forward.csv,READVersionB.csv,"Read Pure F B","Read Pure F B",LATCH,KEY,Study2,F,106,62,STUDY,8,8,,Study/JOL,"Study Phase",8003,,,-1,-1,,,,1
w10126362,js777kqnr7,Nick_Dissertation_EX2_EP,1,27,2022-01-04T19:05:00+00:00,8.3336310386658,4,Pure_Forward.csv,READVersionB.csv,"Read Pure F B","Read Pure F B",ENOUGH,FULL,Study2,F,96,65,STUDY,8,8,,Study/JOL,"Study Phase",8002,,,-1,-1,,,,1
w10126362,js777kqnr7,Nick_Dissertation_EX2_EP,1,28,2022-01-04T19:05:08+00:00,8.373498916626,4,Pure_Forward.csv,READVersionB.csv,"Read Pure F B","Read Pure F B",AFFECTION,LOVE,Study2,F,175,91,STUDY,8,8,,Study/JOL,"Study Phase",8002,,,-1,-1,,,,1
w10126362,js777kqnr7,Nick_Dissertation_EX2_EP,1,29,2022-01-04T19:05:16+00:00,8.3387610912323,4,Pure_Forward.csv,READVersionB.csv,"Read Pure F B","Read Pure F B",DIVISION,MATH,Study2,F,103,57,STUDY,8,8,,Study/JOL,"Study Phase",8003,,,-1,-1,,,,1
w10126362,js777kqnr7,Nick_Dissertation_EX2_EP,1,30,2022-01-04T19:05:25+00:00,8.340744972229,4,Pure_Forward.csv,READVersionB.csv,"Read Pure F B","Read Pure F B",ATTORNEY,LAW,Study2,F,104,75,STUDY,8,8,,Study/JOL,"Study Phase",8002,,,-1,-1,,,,1
w10126362,js777kqnr7,Nick_Dissertation_EX2_EP,1,31,2022-01-04T19:05:33+00:00,8.3326959609985,4,Pure_Forward.csv,READVersionB.csv,"Read Pure F B","Read Pure F B",MULE,DONKEY,Study2,F,168,61,STUDY,8,8,,Study/JOL,"Study Phase",8002,,,-1,-1,,,,1
w10126362,js777kqnr7,Nick_Dissertation_EX2_EP,1,32,2022-01-04T19:05:41+00:00,8.3501579761505,4,Pure_Forward.csv,READVersionB.csv,"Read Pure F B","Read Pure F B",CHOP,CUT,Study2,F,167,59,STUDY,8,8,,Study/JOL,"Study Phase",8002,,,-1,-1,,,,1
w10126362,js777kqnr7,Nick_Dissertation_EX2_EP,1,33,2022-01-04T19:05:50+00:00,8.3334360122681,4,Pure_Forward.csv,READVersionB.csv,"Read Pure F B","Read Pure F B",SHOELACE,TIE,Study2,F,159,80,STUDY,8,8,,Study/JOL,"Study Phase",8003,,,-1,-1,,,,1
w10126362,js777kqnr7,Nick_Dissertation_EX2_EP,1,34,2022-01-04T19:05:58+00:00,8.350643157959,4,Pure_Forward.csv,READVersionB.csv,"Read Pure F B","Read Pure F B",WORD,SENTENCE,Study2,F,101,70,STUDY,8,8,,Study/JOL,"Study Phase",8002,,,-1,-1,,,,1
w10126362,js777kqnr7,Nick_Dissertation_EX2_EP,1,35,2022-01-04T19:06:06+00:00,8.3271539211273,4,Pure_Forward.csv,READVersionB.csv,"Read Pure F B","Read Pure F B",DOCUMENT,PAPER,Study2,F,169,86,STUDY,8,8,,Study/JOL,"Study Phase",8003,,,-1,-1,,,,1
w10126362,js777kqnr7,Nick_Dissertation_EX2_EP,1,36,2022-01-04T19:06:15+00:00,8.3314480781555,4,Pure_Forward.csv,READVersionB.csv,"Read Pure F B","Read Pure F B",PILOT,PLANE,Study2,F,114,92,STUDY,8,8,,Study/JOL,"Study Phase",8002,,,-1,-1,,,,1
w10126362,js777kqnr7,Nick_Dissertation_EX2_EP,1,37,2022-01-04T19:06:23+00:00,8.3432548046112,4,Pure_Forward.csv,READVersionB.csv,"Read Pure F B","Read Pure F B",SEIZE,TAKE,Study2,F,99,73,STUDY,8,8,,Study/JOL,"Study Phase",8004,,,-1,-1,,,,1
w10126362,js777kqnr7,Nick_Dissertation_EX2_EP,1,38,2022-01-04T19:06:32+00:00,8.4022290706635,4,Pure_Forward.csv,READVersionB.csv,"Read Pure F B","Read Pure F B",SHEARS,SCISSORS,Study2,F,172,96,STUDY,8,8,,Study/JOL,"Study Phase",8003,,,-1,-1,,,,1
w10126362,js777kqnr7,Nick_Dissertation_EX2_EP,1,39,2022-01-04T19:06:40+00:00,8.7029371261597,4,Pure_Forward.csv,READVersionB.csv,"Read Pure F B","Read Pure F B",WASP,BUG,Study2,F,102,93,STUDY,8,8,,Study/JOL,"Study Phase",8004,,,-1,-1,,,,1
w10126362,js777kqnr7,Nick_Dissertation_EX2_EP,1,40,2022-01-04T19:06:49+00:00,8.338889837265,4,Pure_Forward.csv,READVersionB.csv,"Read Pure F B","Read Pure F B",DINE,EAT,Study2,F,171,64,STUDY,8,8,,Study/JOL,"Study Phase",8002,,,-1,-1,,,,1
w10126362,js777kqnr7,Nick_Dissertation_EX2_EP,1,41,2022-01-04T19:06:57+00:00,8.4194519519806,4,Pure_Forward.csv,READVersionB.csv,"Read Pure F B","Read Pure F B",LITTER,TRASH,Study2,F,163,82,STUDY,8,8,,Study/JOL,"Study Phase",8003,,,-1,-1,,,,1
w10126362,js777kqnr7,Nick_Dissertation_EX2_EP,1,42,2022-01-04T19:07:05+00:00,8.3342001438141,4,Pure_Forward.csv,READVersionB.csv,"Read Pure F B","Read Pure F B",RACKET,BALL,Study2,F,108,67,STUDY,8,8,,Study/JOL,"Study Phase",8002,,,-1,-1,,,,1
w10126362,js777kqnr7,Nick_Dissertation_EX2_EP,1,43,2022-01-04T19:07:14+00:00,8.3292510509491,4,Pure_Forward.csv,READVersionB.csv,"Read Pure F B","Read Pure F B",BLAZE,FIRE,Study2,F,115,77,STUDY,8,8,,Study/JOL,"Study Phase",8002,,,-1,-1,,,,1
w10126362,js777kqnr7,Nick_Dissertation_EX2_EP,1,44,2022-01-04T19:07:22+00:00,8.3427839279175,4,Pure_Forward.csv,READVersionB.csv,"Read Pure F B","Read Pure F B",INCENSE,SMELL,Study2,F,170,85,STUDY,8,8,,Study/JOL,"Study Phase",8002,,,-1,-1,,,,1
w10126362,js777kqnr7,Nick_Dissertation_EX2_EP,1,45,2022-01-04T19:07:30+00:00,8.3379678726196,4,Pure_Forward.csv,READVersionB.csv,"Read Pure F B","Read Pure F B",EXTENSION,LONG,Study2,F,156,60,STUDY,8,8,,Study/JOL,"Study Phase",8002,,,-1,-1,,,,1
w10126362,js777kqnr7,Nick_Dissertation_EX2_EP,1,46,2022-01-04T19:07:39+00:00,8.3433561325073,4,Pure_Forward.csv,READVersionB.csv,"Read Pure F B","Read Pure F B",CLUE,GAME,Study2,F,157,63,STUDY,8,8,,Study/JOL,"Study Phase",8005,,,-1,-1,,,,1
w10126362,js777kqnr7,Nick_Dissertation_EX2_EP,1,47,2022-01-04T19:07:47+00:00,8.3475930690765,4,Pure_Forward.csv,READVersionB.csv,"Read Pure F B","Read Pure F B",DAYS,WEEKS,BUFFER4,Buffer,176,100,STUDY,8,8,,Study/JOL,BUFFER2,8003,,,-1,-1,,,,1
w10126362,js777kqnr7,Nick_Dissertation_EX2_EP,1,48,2022-01-04T19:07:55+00:00,8.333557844162,4,Pure_Forward.csv,READVersionB.csv,"Read Pure F B","Read Pure F B",SPRING,MARCH,BUFFER4,Buffer,179,97,STUDY,8,8,,Study/JOL,BUFFER2,8002,,,-1,-1,,,,1
w10126362,js777kqnr7,Nick_Dissertation_EX2_EP,1,49,2022-01-04T19:08:04+00:00,8.3469159603119,4,Pure_Forward.csv,READVersionB.csv,"Read Pure F B","Read Pure F B",TOOL,SHED,BUFFER4,Buffer,178,99,STUDY,8,8,,Study/JOL,BUFFER2,8006,,,-1,-1,,,,1
w10126362,js777kqnr7,Nick_Dissertation_EX2_EP,1,50,2022-01-04T19:08:12+00:00,8.3677880764008,4,Pure_Forward.csv,READVersionB.csv,"Read Pure F B","Read Pure F B",OCTOBER,SPOOKY,BUFFER4,Buffer,180,98,STUDY,8,8,,Study/JOL,BUFFER2,8006,,,-1,-1,,,,1
w10126362,js777kqnr7,Nick_Dissertation_EX2_EP,1,51,2022-01-04T19:08:20+00:00,8.3837220668793,4,Pure_Forward.csv,READVersionB.csv,"Read Pure F B","Read Pure F B",MONTH,YEAR,BUFFER4,Buffer,177,101,STUDY,8,8,,Study/JOL,BUFFER2,8005,,,-1,-1,,,,1
w10126362,js777kqnr7,Nick_Dissertation_EX2_EP,1,52,2022-01-04T19:08:24+00:00,3.2947340011597,4,Pure_Forward.csv,READVersionB.csv,"Read Pure F B","Read Pure F B",,,,,,0,Instruct,User,-,"You have completed this section. Please press Enter.",Filler_Instruction,Instruct2,2928,,,-1,-1,,,,1
w10126362,js777kqnr7,Nick_Dissertation_EX2_EP,1,53,2022-01-04T19:10:24+00:00,120.49428892136,4,Pure_Forward.csv,READVersionB.csv,"Read Pure F B","Read Pure F B",,,,,,0,FreeRecall,120,120,"Please list the 50 US states in alphabetical order. The task will automatically advance to the next screen after two minutes.",,Filler1,120002,"Alabama alaska arizona arkansas california colorado connecticut delaware florida gerogia hawaii idaho illinois indiana iowa kansas kentucky louisiana maine maryland massachusetts michigan",0,31282,119833,0,0,,1
w10126362,js777kqnr7,Nick_Dissertation_EX2_EP,1,54,2022-01-04T19:10:36+00:00,11.568526983261,4,Pure_Forward.csv,READVersionB.csv,"Read Pure F B","Read Pure F B",,,,,,0,Instruct,-,10,"You will now be presented with the first word from each of the previously studied item pairs. Please type the missing word. If you do not know the word, you may guess or press Enter to skip forward to the next pair.",,Instruct3,11202,,,-1,-1,,,,1
w10126362,js777kqnr7,Nick_Dissertation_EX2_EP,1,55,2022-01-04T19:10:42+00:00,6.5843660831451,4,Pure_Forward.csv,READVersionB.csv,"Read Pure F B","Read Pure F B",WASP,BUG,Study2,F,102,93,Test,User,-,,Recall,Recall1,6194,Bee,33.333333333333,4174,4807,0,0,,1
w10126362,js777kqnr7,Nick_Dissertation_EX2_EP,1,56,2022-01-04T19:10:45+00:00,2.9330229759216,4,Pure_Forward.csv,READVersionB.csv,"Read Pure F B","Read Pure F B",STENCH,SMELL,Study2,F,112,74,Test,User,-,,Recall,Recall1,2598,smell,100,1564,1990,1,1,,1
w10126362,js777kqnr7,Nick_Dissertation_EX2_EP,1,57,2022-01-04T19:10:48+00:00,2.2002210617065,4,Pure_Forward.csv,READVersionB.csv,"Read Pure F B","Read Pure F B",REVENGE,EVEN,Study1,F,72,23,Test,User,-,,Recall,Recall1,1854,even,100,1132,1471,1,1,,1
w10126362,js777kqnr7,Nick_Dissertation_EX2_EP,1,58,2022-01-04T19:10:55+00:00,7.1070108413696,4,Pure_Forward.csv,READVersionB.csv,"Read Pure F B","Read Pure F B",MULE,DONKEY,Study2,F,168,61,Test,User,-,,Recall,Recall1,6590,horse,36.363636363636,5943,6364,0,0,,1
w10126362,js777kqnr7,Nick_Dissertation_EX2_EP,1,59,2022-01-04T19:10:59+00:00,4.0885531902313,4,Pure_Forward.csv,READVersionB.csv,"Read Pure F B","Read Pure F B",PILOT,PLANE,Study2,F,114,92,Test,User,-,,Recall,Recall1,3758,plane,100,1412,3337,1,1,,1
w10126362,js777kqnr7,Nick_Dissertation_EX2_EP,1,60,2022-01-04T19:11:01+00:00,2.3217709064484,4,Pure_Forward.csv,READVersionB.csv,"Read Pure F B","Read Pure F B",CACTUS,PLANT,Study2,F,158,79,Test,User,-,,Recall,Recall1,1983,plant,100,1159,1866,1,1,,1
w10126362,js777kqnr7,Nick_Dissertation_EX2_EP,1,61,2022-01-04T19:11:04+00:00,2.7117369174957,4,Pure_Forward.csv,READVersionB.csv,"Read Pure F B","Read Pure F B",SHOELACE,TIE,Study2,F,159,80,Test,User,-,,Recall,Recall1,2346,tie,100,2034,2254,1,1,,1
w10126362,js777kqnr7,Nick_Dissertation_EX2_EP,1,62,2022-01-04T19:11:06+00:00,2.2691740989685,4,Pure_Forward.csv,READVersionB.csv,"Read Pure F B","Read Pure F B",ATTORNEY,LAW,Study2,F,104,75,Test,User,-,,Recall,Recall1,1920,law,100,1577,1756,1,1,,1
w10126362,js777kqnr7,Nick_Dissertation_EX2_EP,1,63,2022-01-04T19:11:09+00:00,3.4337019920349,4,Pure_Forward.csv,READVersionB.csv,"Read Pure F B","Read Pure F B",CHILI,HOT,Study2,F,107,72,Test,User,-,,Recall,Recall1,2785,hot,100,2413,2664,1,1,,1
w10126362,js777kqnr7,Nick_Dissertation_EX2_EP,1,64,2022-01-04T19:11:12+00:00,2.3511159420013,4,Pure_Forward.csv,READVersionB.csv,"Read Pure F B","Read Pure F B",DOCUMENT,PAPER,Study2,F,169,86,Test,User,-,,Recall,Recall1,2014,paper,100,1217,1854,1,1,,1
w10126362,js777kqnr7,Nick_Dissertation_EX2_EP,1,65,2022-01-04T19:11:18+00:00,6.4419281482697,4,Pure_Forward.csv,READVersionB.csv,"Read Pure F B","Read Pure F B",DETECTIVE,MYSTERY,Study2,F,160,81,Test,User,-,,Recall,Recall1,6091,investigate,33.333333333333,3558,5982,0,0,,1
w10126362,js777kqnr7,Nick_Dissertation_EX2_EP,1,66,2022-01-04T19:11:22+00:00,3.8985710144043,4,Pure_Forward.csv,READVersionB.csv,"Read Pure F B","Read Pure F B",CLUE,GAME,Study2,F,157,63,Test,User,-,,Recall,Recall1,3494,,0,-1,-1,0,0,,1
w10126362,js777kqnr7,Nick_Dissertation_EX2_EP,1,67,2022-01-04T19:11:26+00:00,3.8189640045166,4,Pure_Forward.csv,READVersionB.csv,"Read Pure F B","Read Pure F B",DIVISION,MATH,Study2,F,103,57,Test,User,-,,Recall,Recall1,3484,math,100,1976,3365,1,1,,1
w10126362,js777kqnr7,Nick_Dissertation_EX2_EP,1,68,2022-01-04T19:11:30+00:00,4.0790939331055,4,Pure_Forward.csv,READVersionB.csv,"Read Pure F B","Read Pure F B",WORD,SENTENCE,Study2,F,101,70,Test,User,-,,Recall,Recall1,3747,p=,0,2660,3565,0,0,,1
w10126362,js777kqnr7,Nick_Dissertation_EX2_EP,1,69,2022-01-04T19:11:34+00:00,3.9435129165649,4,Pure_Forward.csv,READVersionB.csv,"Read Pure F B","Read Pure F B",SHEARS,SCISSORS,Study2,F,172,96,Test,User,-,,Recall,Recall1,3602,hair,33.333333333333,3174,3472,0,0,,1
w10126362,js777kqnr7,Nick_Dissertation_EX2_EP,1,70,2022-01-04T19:11:38+00:00,3.8546810150146,4,Pure_Forward.csv,READVersionB.csv,"Read Pure F B","Read Pure F B",FEUD,FIGHT,Study2,F,173,95,Test,User,-,,Recall,Recall1,3518,fight,100,3007,3406,1,1,,1
w10126362,js777kqnr7,Nick_Dissertation_EX2_EP,1,71,2022-01-04T19:11:40+00:00,2.1680040359497,4,Pure_Forward.csv,READVersionB.csv,"Read Pure F B","Read Pure F B",SCALP,HEAD,Study2,F,165,94,Test,User,-,,Recall,Recall1,1828,head,100,1222,1695,1,1,,1
w10126362,js777kqnr7,Nick_Dissertation_EX2_EP,1,72,2022-01-04T19:11:43+00:00,2.8114020824432,4,Pure_Forward.csv,READVersionB.csv,"Read Pure F B","Read Pure F B",LITTER,TRASH,Study2,F,163,82,Test,User,-,,Recall,Recall1,2458,cat,25,2016,2335,0,0,,1
w10126362,js777kqnr7,Nick_Dissertation_EX2_EP,1,73,2022-01-04T19:11:46+00:00,3.3644678592682,4,Pure_Forward.csv,READVersionB.csv,"Read Pure F B","Read Pure F B",DRIVER,CAR,Study2,F,166,84,Test,User,-,,Recall,Recall1,3030,car,100,2696,2944,1,1,,1
w10126362,js777kqnr7,Nick_Dissertation_EX2_EP,1,74,2022-01-04T19:11:48+00:00,1.8280560970306,4,Pure_Forward.csv,READVersionB.csv,"Read Pure F B","Read Pure F B",CHORE,WORK,Study2,F,109,90,Test,User,-,,Recall,Recall1,1496,work,100,1072,1340,1,1,,1
w10126362,js777kqnr7,Nick_Dissertation_EX2_EP,1,75,2022-01-04T19:11:51+00:00,3.0686979293823,4,Pure_Forward.csv,READVersionB.csv,"Read Pure F B","Read Pure F B",FAMINE,HUNGER,Study2,F,110,89,Test,User,-,,Recall,Recall1,2747,food,0,2255,2653,0,0,,1
w10126362,js777kqnr7,Nick_Dissertation_EX2_EP,1,76,2022-01-04T19:11:55+00:00,3.8311440944672,4,Pure_Forward.csv,READVersionB.csv,"Read Pure F B","Read Pure F B",GROWTH,HEIGHT,Study2,F,100,66,Test,User,-,,Recall,Recall1,3493,,0,-1,-1,0,0,,1
w10126362,js777kqnr7,Nick_Dissertation_EX2_EP,1,77,2022-01-04T19:11:57+00:00,2.131395816803,4,Pure_Forward.csv,READVersionB.csv,"Read Pure F B","Read Pure F B",FURRY,DOG,Study2,F,162,68,Test,User,-,,Recall,Recall1,1786,dog,100,1472,1667,1,1,,1
w10126362,js777kqnr7,Nick_Dissertation_EX2_EP,1,78,2022-01-04T19:12:00+00:00,2.8018782138824,4,Pure_Forward.csv,READVersionB.csv,"Read Pure F B","Read Pure F B",CHERRY,RED,Study2,F,164,78,Test,User,-,,Recall,Recall1,2481,,0,-1,-1,0,0,,1
w10126362,js777kqnr7,Nick_Dissertation_EX2_EP,1,79,2022-01-04T19:12:04+00:00,3.7803797721863,4,Pure_Forward.csv,READVersionB.csv,"Read Pure F B","Read Pure F B",ATTIRE,CLOTHES,Study2,F,113,87,Test,User,-,,Recall,Recall1,3448,clothes,100,1109,3319,1,1,,1
w10126362,js777kqnr7,Nick_Dissertation_EX2_EP,1,80,2022-01-04T19:12:06+00:00,2.2274610996246,4,Pure_Forward.csv,READVersionB.csv,"Read Pure F B","Read Pure F B",INCENSE,SMELL,Study2,F,170,85,Test,User,-,,Recall,Recall1,1906,smell,100,1282,1758,1,1,,1
w10126362,js777kqnr7,Nick_Dissertation_EX2_EP,1,81,2022-01-04T19:12:09+00:00,3.3736019134521,4,Pure_Forward.csv,READVersionB.csv,"Read Pure F B","Read Pure F B",EXTENSION,LONG,Study2,F,156,60,Test,User,-,,Recall,Recall1,3048,long,100,2507,2954,1,1,,1
w10126362,js777kqnr7,Nick_Dissertation_EX2_EP,1,82,2022-01-04T19:12:11+00:00,2.0018780231476,4,Pure_Forward.csv,READVersionB.csv,"Read Pure F B","Read Pure F B",RACKET,BALL,Study2,F,108,67,Test,User,-,,Recall,Recall1,1669,ball,100,1185,1545,1,1,,1
w10126362,js777kqnr7,Nick_Dissertation_EX2_EP,1,83,2022-01-04T19:12:13+00:00,2.1829349994659,4,Pure_Forward.csv,READVersionB.csv,"Read Pure F B","Read Pure F B",ENOUGH,FULL,Study2,F,96,65,Test,User,-,,Recall,Recall1,1860,,0,-1,-1,0,0,,1
w10126362,js777kqnr7,Nick_Dissertation_EX2_EP,1,84,2022-01-04T19:12:16+00:00,2.6215991973877,4,Pure_Forward.csv,READVersionB.csv,"Read Pure F B","Read Pure F B",CAVE,DARK,Study2,F,98,69,Test,User,-,,Recall,Recall1,2276,;,0,1824,1824,0,0,,1
w10126362,js777kqnr7,Nick_Dissertation_EX2_EP,1,85,2022-01-04T19:12:18+00:00,2.0390589237213,4,Pure_Forward.csv,READVersionB.csv,"Read Pure F B","Read Pure F B",CHOP,CUT,Study2,F,167,59,Test,User,-,,Recall,Recall1,1684,cut,100,1347,1593,1,1,,1
w10126362,js777kqnr7,Nick_Dissertation_EX2_EP,1,86,2022-01-04T19:12:21+00:00,3.019819021225,4,Pure_Forward.csv,READVersionB.csv,"Read Pure F B","Read Pure F B",SIP,DRINK,Study2,F,97,88,Test,User,-,,Recall,Recall1,2658,water,20,2107,2593,0,0,,1
w10126362,js777kqnr7,Nick_Dissertation_EX2_EP,1,87,2022-01-04T19:12:24+00:00,2.6669230461121,4,Pure_Forward.csv,READVersionB.csv,"Read Pure F B","Read Pure F B",LATCH,KEY,Study2,F,106,62,Test,User,-,,Recall,Recall1,2073,hold,0,1559,1980,0,0,,1
w10126362,js777kqnr7,Nick_Dissertation_EX2_EP,1,88,2022-01-04T19:12:26+00:00,1.8366889953613,4,Pure_Forward.csv,READVersionB.csv,"Read Pure F B","Read Pure F B",DINE,EAT,Study2,F,171,64,Test,User,-,,Recall,Recall1,1504,in,0,1279,1358,0,0,,1
w10126362,js777kqnr7,Nick_Dissertation_EX2_EP,1,89,2022-01-04T19:12:29+00:00,3.6727178096771,4,Pure_Forward.csv,READVersionB.csv,"Read Pure F B","Read Pure F B",CHILL,COLD,Study2,F,174,76,Test,User,-,,Recall,Recall1,3350,hot,28.571428571429,2934,3185,0,0,,1
w10126362,js777kqnr7,Nick_Dissertation_EX2_EP,1,90,2022-01-04T19:12:31+00:00,1.6956381797791,4,Pure_Forward.csv,READVersionB.csv,"Read Pure F B","Read Pure F B",CHOP,CUT,Study2,F,167,59,Test,User,-,,Recall,Recall1,1349,cut,100,1013,1240,1,1,,1
w10126362,js777kqnr7,Nick_Dissertation_EX2_EP,1,91,2022-01-04T19:12:33+00:00,2.3586518764496,4,Pure_Forward.csv,READVersionB.csv,"Read Pure F B","Read Pure F B",BLAZE,FIRE,Study2,F,115,77,Test,User,-,,Recall,Recall1,2042,fire,100,1714,1969,1,1,,1
w10126362,js777kqnr7,Nick_Dissertation_EX2_EP,1,92,2022-01-04T19:12:35+00:00,1.7750761508942,4,Pure_Forward.csv,READVersionB.csv,"Read Pure F B","Read Pure F B",SEIZE,TAKE,Study2,F,99,73,Test,User,-,,Recall,Recall1,1442,take,100,1080,1368,1,1,,1
w10126362,js777kqnr7,Nick_Dissertation_EX2_EP,1,93,2022-01-04T19:12:37+00:00,2.3287107944489,4,Pure_Forward.csv,READVersionB.csv,"Read Pure F B","Read Pure F B",FANTASTIC,GREAT,Study2,F,105,71,Test,User,-,,Recall,Recall1,2005,great,100,1260,1697,1,1,,1
w10126362,js777kqnr7,Nick_Dissertation_EX2_EP,1,94,2022-01-04T19:12:39+00:00,1.9553492069244,4,Pure_Forward.csv,READVersionB.csv,"Read Pure F B","Read Pure F B",AFFECTION,LOVE,Study2,F,175,91,Test,User,-,,Recall,Recall1,1625,love,100,1033,1392,1,1,,1
w10126362,js777kqnr7,Nick_Dissertation_EX2_EP,1,95,2022-01-04T19:12:57+00:00,17.815468788147,4,Pure_Forward.csv,READVersionB.csv,"Read Pure F B","Read Pure F B",,,,,,0,Instruct,-,10,"You will now be presented with a new set of word pairs. Please study each pair. Remember that your memory will be tested! Each pair will be displayed on the computer screen and will automatically advance to the next pair. Press ENTER when you are ready to begin.",Initial_Instruct,Instruct4,17486,,,-1,-1,,,,1
w10126362,js777kqnr7,Nick_Dissertation_EX2_EP,1,96,2022-01-04T19:13:06+00:00,8.4596409797668,4,Pure_Forward.csv,READVersionB.csv,"Read Pure F B","Read Pure F B",PEANUT,BUTTER,BUFFER1,Buffer,3,3,STUDY,8,8,,Study/JOL,BUFFER3,8002,,,-1,-1,,,,1
w10126362,js777kqnr7,Nick_Dissertation_EX2_EP,1,97,2022-01-04T19:13:14+00:00,8.3433101177216,4,Pure_Forward.csv,READVersionB.csv,"Read Pure F B","Read Pure F B",TREES,GREEN,BUFFER1,Buffer,1,2,STUDY,8,8,,Study/JOL,BUFFER3,8004,,,-1,-1,,,,1
w10126362,js777kqnr7,Nick_Dissertation_EX2_EP,1,98,2022-01-04T19:13:22+00:00,8.3401210308075,4,Pure_Forward.csv,READVersionB.csv,"Read Pure F B","Read Pure F B",SPACE,JAM,BUFFER1,Buffer,5,5,STUDY,8,8,,Study/JOL,BUFFER3,8002,,,-1,-1,,,,1
w10126362,js777kqnr7,Nick_Dissertation_EX2_EP,1,99,2022-01-04T19:13:31+00:00,8.3385288715363,4,Pure_Forward.csv,READVersionB.csv,"Read Pure F B","Read Pure F B",SCARE,HIDE,BUFFER1,Buffer,4,4,STUDY,8,8,,Study/JOL,BUFFER3,8003,,,-1,-1,,,,1
w10126362,js777kqnr7,Nick_Dissertation_EX2_EP,1,100,2022-01-04T19:13:39+00:00,8.3465311527252,4,Pure_Forward.csv,READVersionB.csv,"Read Pure F B","Read Pure F B",BASEBALL,CATCHER,BUFFER1,Buffer,2,6,STUDY,8,8,,Study/JOL,BUFFER3,8002,,,-1,-1,,,,1
w10126362,js777kqnr7,Nick_Dissertation_EX2_EP,1,101,2022-01-04T19:13:47+00:00,8.3450469970703,4,Pure_Forward.csv,READVersionB.csv,"Read Pure F B","Read Pure F B",HYGIENE,CLEAN,Study1,F,17,30,STUDY,8,8,,Study/JOL,"Study Phase2",8004,,,-1,-1,,,,1
w10126362,js777kqnr7,Nick_Dissertation_EX2_EP,1,102,2022-01-04T19:13:56+00:00,8.3447148799896,4,Pure_Forward.csv,READVersionB.csv,"Read Pure F B","Read Pure F B",REVENGE,EVEN,Study1,F,72,23,STUDY,8,8,,Study/JOL,"Study Phase2",8005,,,-1,-1,,,,1
w10126362,js777kqnr7,Nick_Dissertation_EX2_EP,1,103,2022-01-04T19:14:04+00:00,8.3363661766052,4,Pure_Forward.csv,READVersionB.csv,"Read Pure F B","Read Pure F B",CHISEL,HAMMER,Study1,F,9,12,STUDY,8,8,,Study/JOL,"Study Phase2",8002,,,-1,-1,,,,1
w10126362,js777kqnr7,Nick_Dissertation_EX2_EP,1,104,2022-01-04T19:14:12+00:00,8.3490569591522,4,Pure_Forward.csv,READVersionB.csv,"Read Pure F B","Read Pure F B",BRIDGE,WATER,Study1,F,18,34,STUDY,8,8,,Study/JOL,"Study Phase2",8005,,,-1,-1,,,,1
w10126362,js777kqnr7,Nick_Dissertation_EX2_EP,1,105,2022-01-04T19:14:21+00:00,8.3564329147339,4,Pure_Forward.csv,READVersionB.csv,"Read Pure F B","Read Pure F B",BRAWL,FIGHT,Study1,F,85,36,STUDY,8,8,,Study/JOL,"Study Phase2",8002,,,-1,-1,,,,1
w10126362,js777kqnr7,Nick_Dissertation_EX2_EP,1,106,2022-01-04T19:14:29+00:00,8.3456969261169,4,Pure_Forward.csv,READVersionB.csv,"Read Pure F B","Read Pure F B",TRUTHFUL,HONEST,Study1,F,83,42,STUDY,8,8,,Study/JOL,"Study Phase2",8003,,,-1,-1,,,,1
w10126362,js777kqnr7,Nick_Dissertation_EX2_EP,1,107,2022-01-04T19:14:37+00:00,8.3352911472321,4,Pure_Forward.csv,READVersionB.csv,"Read Pure F B","Read Pure F B",FAVORITE,BEST,Study1,F,75,14,STUDY,8,8,,Study/JOL,"Study Phase2",8002,,,-1,-1,,,,1
w10126362,js777kqnr7,Nick_Dissertation_EX2_EP,1,108,2022-01-04T19:14:46+00:00,8.341796875,4,Pure_Forward.csv,READVersionB.csv,"Read Pure F B","Read Pure F B",ROOT,PLANT,Study1,F,13,27,STUDY,8,8,,Study/JOL,"Study Phase2",8001,,,-1,-1,,,,1
w10126362,js777kqnr7,Nick_Dissertation_EX2_EP,1,109,2022-01-04T19:14:54+00:00,8.3385391235352,4,Pure_Forward.csv,READVersionB.csv,"Read Pure F B","Read Pure F B",THIMBLE,THREAD,Study1,F,71,21,STUDY,8,8,,Study/JOL,"Study Phase2",8003,,,-1,-1,,,,1
w10126362,js777kqnr7,Nick_Dissertation_EX2_EP,1,110,2022-01-04T19:15:02+00:00,8.3659348487854,4,Pure_Forward.csv,READVersionB.csv,"Read Pure F B","Read Pure F B",AIRCRAFT,PLANE,Study1,F,79,31,STUDY,8,8,,Study/JOL,"Study Phase2",8001,,,-1,-1,,,,1
w10126362,js777kqnr7,Nick_Dissertation_EX2_EP,1,111,2022-01-04T19:15:11+00:00,8.3586630821228,4,Pure_Forward.csv,READVersionB.csv,"Read Pure F B","Read Pure F B",LEAGUE,BASEBALL,Study1,F,81,7,STUDY,8,8,,Study/JOL,"Study Phase2",8003,,,-1,-1,,,,1
w10126362,js777kqnr7,Nick_Dissertation_EX2_EP,1,112,2022-01-04T19:15:19+00:00,8.3406720161438,4,Pure_Forward.csv,READVersionB.csv,"Read Pure F B","Read Pure F B",DELINQUENT,BAD,Study1,F,6,20,STUDY,8,8,,Study/JOL,"Study Phase2",8003,,,-1,-1,,,,1
w10126362,js777kqnr7,Nick_Dissertation_EX2_EP,1,113,2022-01-04T19:15:28+00:00,8.3333919048309,4,Pure_Forward.csv,READVersionB.csv,"Read Pure F B","Read Pure F B",CREDIT,CARD,Study1,F,23,29,STUDY,8,8,,Study/JOL,"Study Phase2",8002,,,-1,-1,,,,1
w10126362,js777kqnr7,Nick_Dissertation_EX2_EP,1,114,2022-01-04T19:15:36+00:00,8.3298921585083,4,Pure_Forward.csv,READVersionB.csv,"Read Pure F B","Read Pure F B",HORNET,STING,Study1,F,11,15,STUDY,8,8,,Study/JOL,"Study Phase2",8002,,,-1,-1,,,,1
w10126362,js777kqnr7,Nick_Dissertation_EX2_EP,1,115,2022-01-04T19:15:44+00:00,8.344358921051,4,Pure_Forward.csv,READVersionB.csv,"Read Pure F B","Read Pure F B",GEOLOGY,ROCK,Study1,F,19,10,STUDY,8,8,,Study/JOL,"Study Phase2",8003,,,-1,-1,,,,1
w10126362,js777kqnr7,Nick_Dissertation_EX2_EP,1,116,2022-01-04T19:15:53+00:00,8.3375279903412,4,Pure_Forward.csv,READVersionB.csv,"Read Pure F B","Read Pure F B",VILLAIN,BAD,Study1,F,68,40,STUDY,8,8,,Study/JOL,"Study Phase2",8004,,,-1,-1,,,,1
w10126362,js777kqnr7,Nick_Dissertation_EX2_EP,1,117,2022-01-04T19:16:01+00:00,8.3314390182495,4,Pure_Forward.csv,READVersionB.csv,"Read Pure F B","Read Pure F B",WINDSHIELD,CAR,Study1,F,67,37,STUDY,8,8,,Study/JOL,"Study Phase2",8004,,,-1,-1,,,,1
w10126362,js777kqnr7,Nick_Dissertation_EX2_EP,1,118,2022-01-04T19:16:09+00:00,8.4141631126404,4,Pure_Forward.csv,READVersionB.csv,"Read Pure F B","Read Pure F B",DIGESTION,STOMACH,Study1,F,7,18,STUDY,8,8,,Study/JOL,"Study Phase2",8003,,,-1,-1,,,,1
w10126362,js777kqnr7,Nick_Dissertation_EX2_EP,1,119,2022-01-04T19:16:18+00:00,8.342188835144,4,Pure_Forward.csv,READVersionB.csv,"Read Pure F B","Read Pure F B",BALLOON,POP,Study1,F,73,17,STUDY,8,8,,Study/JOL,"Study Phase2",8003,,,-1,-1,,,,1
w10126362,js777kqnr7,Nick_Dissertation_EX2_EP,1,120,2022-01-04T19:16:26+00:00,8.3420960903168,4,Pure_Forward.csv,READVersionB.csv,"Read Pure F B","Read Pure F B",ORCHID,FLOWER,Study1,F,24,39,STUDY,8,8,,Study/JOL,"Study Phase2",8002,,,-1,-1,,,,1
w10126362,js777kqnr7,Nick_Dissertation_EX2_EP,1,121,2022-01-04T19:16:34+00:00,8.3408410549164,4,Pure_Forward.csv,READVersionB.csv,"Read Pure F B","Read Pure F B",STRAWBERRY,FRUIT,Study1,F,74,9,STUDY,8,8,,Study/JOL,"Study Phase2",8003,,,-1,-1,,,,1
w10126362,js777kqnr7,Nick_Dissertation_EX2_EP,1,122,2022-01-04T19:16:43+00:00,8.4345610141754,4,Pure_Forward.csv,READVersionB.csv,"Read Pure F B","Read Pure F B",PAW,DOG,Study1,F,15,44,STUDY,8,8,,Study/JOL,"Study Phase2",8003,,,-1,-1,,,,1
w10126362,js777kqnr7,Nick_Dissertation_EX2_EP,1,123,2022-01-04T19:16:51+00:00,8.3743488788605,4,Pure_Forward.csv,READVersionB.csv,"Read Pure F B","Read Pure F B",FLIP,TURN,Study1,F,66,25,STUDY,8,8,,Study/JOL,"Study Phase2",8003,,,-1,-1,,,,1
w10126362,js777kqnr7,Nick_Dissertation_EX2_EP,1,124,2022-01-04T19:16:59+00:00,8.348072052002,4,Pure_Forward.csv,READVersionB.csv,"Read Pure F B","Read Pure F B",WAY,OUT,Study1,F,16,8,STUDY,8,8,,Study/JOL,"Study Phase2",8003,,,-1,-1,,,,1
w10126362,js777kqnr7,Nick_Dissertation_EX2_EP,1,125,2022-01-04T19:17:08+00:00,8.3531138896942,4,Pure_Forward.csv,READVersionB.csv,"Read Pure F B","Read Pure F B",REVOLUTION,WAR,Study1,F,20,26,STUDY,8,8,,Study/JOL,"Study Phase2",8003,,,-1,-1,,,,1
w10126362,js777kqnr7,Nick_Dissertation_EX2_EP,1,126,2022-01-04T19:17:16+00:00,8.3487691879272,4,Pure_Forward.csv,READVersionB.csv,"Read Pure F B","Read Pure F B",ACTRESS,STAR,Study1,F,70,32,STUDY,8,8,,Study/JOL,"Study Phase2",8002,,,-1,-1,,,,1
w10126362,js777kqnr7,Nick_Dissertation_EX2_EP,1,127,2022-01-04T19:17:25+00:00,8.3533589839935,4,Pure_Forward.csv,READVersionB.csv,"Read Pure F B","Read Pure F B",EDITOR,NEWS,Study1,F,10,13,STUDY,8,8,,Study/JOL,"Study Phase2",8003,,,-1,-1,,,,1
w10126362,js777kqnr7,Nick_Dissertation_EX2_EP,1,128,2022-01-04T19:17:33+00:00,8.3676428794861,4,Pure_Forward.csv,READVersionB.csv,"Read Pure F B","Read Pure F B",HERD,COW,Study1,F,22,35,STUDY,8,8,,Study/JOL,"Study Phase2",8003,,,-1,-1,,,,1
w10126362,js777kqnr7,Nick_Dissertation_EX2_EP,1,129,2022-01-04T19:17:41+00:00,8.3650150299072,4,Pure_Forward.csv,READVersionB.csv,"Read Pure F B","Read Pure F B",NAP,SLEEP,Study1,F,84,38,STUDY,8,8,,Study/JOL,"Study Phase2",8002,,,-1,-1,,,,1
w10126362,js777kqnr7,Nick_Dissertation_EX2_EP,1,130,2022-01-04T19:17:50+00:00,8.3673529624939,4,Pure_Forward.csv,READVersionB.csv,"Read Pure F B","Read Pure F B",TUNA,FISH,Study1,F,25,16,STUDY,8,8,,Study/JOL,"Study Phase2",8003,,,-1,-1,,,,1
w10126362,js777kqnr7,Nick_Dissertation_EX2_EP,1,131,2022-01-04T19:17:58+00:00,8.3568201065063,4,Pure_Forward.csv,READVersionB.csv,"Read Pure F B","Read Pure F B",WAGE,MONEY,Study1,F,8,22,STUDY,8,8,,Study/JOL,"Study Phase2",8003,,,-1,-1,,,,1
w10126362,js777kqnr7,Nick_Dissertation_EX2_EP,1,132,2022-01-04T19:18:06+00:00,8.3601059913635,4,Pure_Forward.csv,READVersionB.csv,"Read Pure F B","Read Pure F B",SARDINE,FISH,Study1,F,80,43,STUDY,8,8,,Study/JOL,"Study Phase2",8003,,,-1,-1,,,,1
w10126362,js777kqnr7,Nick_Dissertation_EX2_EP,1,133,2022-01-04T19:18:15+00:00,8.3472340106964,4,Pure_Forward.csv,READVersionB.csv,"Read Pure F B","Read Pure F B",SWAN,BIRD,Study1,F,14,45,STUDY,8,8,,Study/JOL,"Study Phase2",8005,,,-1,-1,,,,1
w10126362,js777kqnr7,Nick_Dissertation_EX2_EP,1,134,2022-01-04T19:18:23+00:00,8.3389389514923,4,Pure_Forward.csv,READVersionB.csv,"Read Pure F B","Read Pure F B",COFFIN,DEAD,Study1,F,78,24,STUDY,8,8,,Study/JOL,"Study Phase2",8003,,,-1,-1,,,,1
w10126362,js777kqnr7,Nick_Dissertation_EX2_EP,1,135,2022-01-04T19:18:31+00:00,8.3432629108429,4,Pure_Forward.csv,READVersionB.csv,"Read Pure F B","Read Pure F B",DISCUSSION,TALK,Study1,F,21,33,STUDY,8,8,,Study/JOL,"Study Phase2",8003,,,-1,-1,,,,1
w10126362,js777kqnr7,Nick_Dissertation_EX2_EP,1,136,2022-01-04T19:18:40+00:00,8.3398129940033,4,Pure_Forward.csv,READVersionB.csv,"Read Pure F B","Read Pure F B",PANTHER,CAT,Study1,F,76,19,STUDY,8,8,,Study/JOL,"Study Phase2",8006,,,-1,-1,,,,1
w10126362,js777kqnr7,Nick_Dissertation_EX2_EP,1,137,2022-01-04T19:18:48+00:00,8.3393859863281,4,Pure_Forward.csv,READVersionB.csv,"Read Pure F B","Read Pure F B",BREAKABLE,GLASS,Study1,F,77,46,STUDY,8,8,,Study/JOL,"Study Phase2",8002,,,-1,-1,,,,1
w10126362,js777kqnr7,Nick_Dissertation_EX2_EP,1,138,2022-01-04T19:18:56+00:00,8.3651971817017,4,Pure_Forward.csv,READVersionB.csv,"Read Pure F B","Read Pure F B",PENGUIN,BIRD,Study1,F,69,28,STUDY,8,8,,Study/JOL,"Study Phase2",8003,,,-1,-1,,,,1
w10126362,js777kqnr7,Nick_Dissertation_EX2_EP,1,139,2022-01-04T19:19:05+00:00,8.3411798477173,4,Pure_Forward.csv,READVersionB.csv,"Read Pure F B","Read Pure F B",BITTER,COLD,Study1,F,12,41,STUDY,8,8,,Study/JOL,"Study Phase2",8003,,,-1,-1,,,,1
w10126362,js777kqnr7,Nick_Dissertation_EX2_EP,1,140,2022-01-04T19:19:13+00:00,8.3318960666656,4,Pure_Forward.csv,READVersionB.csv,"Read Pure F B","Read Pure F B",BANKER,MONEY,Study1,F,82,11,STUDY,8,8,,Study/JOL,"Study Phase2",8002,,,-1,-1,,,,1
w10126362,js777kqnr7,Nick_Dissertation_EX2_EP,1,141,2022-01-04T19:19:21+00:00,8.3479390144348,4,Pure_Forward.csv,READVersionB.csv,"Read Pure F B","Read Pure F B",GEESE,GOOSE,BUFFER2,Buffer,86,51,STUDY,8,8,,Study/JOL,BUFFER4,8003,,,-1,-1,,,,1
w10126362,js777kqnr7,Nick_Dissertation_EX2_EP,1,142,2022-01-04T19:19:30+00:00,8.3595290184021,4,Pure_Forward.csv,READVersionB.csv,"Read Pure F B","Read Pure F B",MOON,SPACE,BUFFER2,Buffer,89,48,STUDY,8,8,,Study/JOL,BUFFER4,8004,,,-1,-1,,,,1
w10126362,js777kqnr7,Nick_Dissertation_EX2_EP,1,143,2022-01-04T19:19:38+00:00,8.3356330394745,4,Pure_Forward.csv,READVersionB.csv,"Read Pure F B","Read Pure F B",THING,STUFF,BUFFER2,Buffer,90,47,STUDY,8,8,,Study/JOL,BUFFER4,8002,,,-1,-1,,,,1
w10126362,js777kqnr7,Nick_Dissertation_EX2_EP,1,144,2022-01-04T19:19:47+00:00,8.7214889526367,4,Pure_Forward.csv,READVersionB.csv,"Read Pure F B","Read Pure F B",SHERRIF,POLICE,BUFFER2,Buffer,87,50,STUDY,8,8,,Study/JOL,BUFFER4,8003,,,-1,-1,,,,1
w10126362,js777kqnr7,Nick_Dissertation_EX2_EP,1,145,2022-01-04T19:19:55+00:00,8.3903019428253,4,Pure_Forward.csv,READVersionB.csv,"Read Pure F B","Read Pure F B",MALT,CHOCOLATE,BUFFER2,Buffer,88,49,STUDY,8,8,,Study/JOL,BUFFER4,8002,,,-1,-1,,,,1
w10126362,js777kqnr7,Nick_Dissertation_EX2_EP,1,146,2022-01-04T19:19:58+00:00,2.7530910968781,4,Pure_Forward.csv,READVersionB.csv,"Read Pure F B","Read Pure F B",,,,,,0,Instruct,User,-,"You have completed this section. Please press Enter.",Filler_Instruction,Instruct5,2414,,,-1,-1,,,,1
w10126362,js777kqnr7,Nick_Dissertation_EX2_EP,1,147,2022-01-04T19:21:58+00:00,120.50169897079,4,Pure_Forward.csv,READVersionB.csv,"Read Pure F B","Read Pure F B",,,,,,0,FreeRecall,120,120,"Please list the 50 US states in reverse alphabetical order (z - a). The task will automatically advance to the next screen after two minutes.",,Filler2,120003,"wyoming wisconsin west virginia washington virginia vermont utah texas tennessee south dakota south carolina phode island pennsylvaia oregon oklahoma ohio north dakota north carolina new york new mexico new jersey new hampshire nevada nebraska montana missouiri mississippi minnessota michigan massachusetts mary",0,16529,119887,0,0,,1
w10126362,js777kqnr7,Nick_Dissertation_EX2_EP,1,148,2022-01-04T19:22:10+00:00,11.504448890686,4,Pure_Forward.csv,READVersionB.csv,"Read Pure F B","Read Pure F B",,,,,,0,Instruct,-,10,"You will now be presented with the first word from each of the previously studied item pairs. Please type the missing word. If you do not know the word, you may guess or press Enter to skip forward to the next pair.",,Instruct6,11115,,,-1,-1,,,,1
w10126362,js777kqnr7,Nick_Dissertation_EX2_EP,1,149,2022-01-04T19:22:12+00:00,2.0268881320953,4,Pure_Forward.csv,READVersionB.csv,"Read Pure F B","Read Pure F B",WAY,OUT,Study1,F,16,8,Test,User,-,,Recall,Recall2,1670,out,100,1398,1582,1,1,,1
w10126362,js777kqnr7,Nick_Dissertation_EX2_EP,1,150,2022-01-04T19:22:15+00:00,2.8318908214569,4,Pure_Forward.csv,READVersionB.csv,"Read Pure F B","Read Pure F B",ACTRESS,STAR,Study1,F,70,32,Test,User,-,,Recall,Recall2,2495,actor,44.444444444444,1521,2330,0,0,,1
w10126362,js777kqnr7,Nick_Dissertation_EX2_EP,1,151,2022-01-04T19:22:17+00:00,2.175222158432,4,Pure_Forward.csv,READVersionB.csv,"Read Pure F B","Read Pure F B",BRAWL,FIGHT,Study1,F,85,36,Test,User,-,,Recall,Recall2,1847,fight,100,1378,1770,1,1,,1
w10126362,js777kqnr7,Nick_Dissertation_EX2_EP,1,152,2022-01-04T19:22:21+00:00,3.5535378456116,4,Pure_Forward.csv,READVersionB.csv,"Read Pure F B","Read Pure F B",PENGUIN,BIRD,Study1,F,69,28,Test,User,-,,Recall,Recall2,3212,cold,25,2760,3131,0,0,,1
w10126362,js777kqnr7,Nick_Dissertation_EX2_EP,1,153,2022-01-04T19:22:24+00:00,3.863988161087,4,Pure_Forward.csv,READVersionB.csv,"Read Pure F B","Read Pure F B",BREAKABLE,GLASS,Study1,F,77,46,Test,User,-,,Recall,Recall2,3523,,0,-1,-1,0,0,,1
w10126362,js777kqnr7,Nick_Dissertation_EX2_EP,1,154,2022-01-04T19:22:26+00:00,1.9843440055847,4,Pure_Forward.csv,READVersionB.csv,"Read Pure F B","Read Pure F B",ORCHID,FLOWER,Study1,F,24,39,Test,User,-,,Recall,Recall2,1650,flower,100,1017,1506,1,1,,1
w10126362,js777kqnr7,Nick_Dissertation_EX2_EP,1,155,2022-01-04T19:22:28+00:00,1.8788108825684,4,Pure_Forward.csv,READVersionB.csv,"Read Pure F B","Read Pure F B",TRUTHFUL,HONEST,Study1,F,83,42,Test,User,-,,Recall,Recall2,1548,lie,22.222222222222,1191,1438,0,0,,1
w10126362,js777kqnr7,Nick_Dissertation_EX2_EP,1,156,2022-01-04T19:22:31+00:00,2.8089640140533,4,Pure_Forward.csv,READVersionB.csv,"Read Pure F B","Read Pure F B",FAVORITE,BEST,Study1,F,75,14,Test,User,-,,Recall,Recall2,2485,,0,-1,-1,0,0,,1
w10126362,js777kqnr7,Nick_Dissertation_EX2_EP,1,157,2022-01-04T19:22:34+00:00,2.5457150936127,4,Pure_Forward.csv,READVersionB.csv,"Read Pure F B","Read Pure F B",BRIDGE,WATER,Study1,F,18,34,Test,User,-,,Recall,Recall2,2195,cross,20,1368,2066,0,0,,1
w10126362,js777kqnr7,Nick_Dissertation_EX2_EP,1,158,2022-01-04T19:22:37+00:00,3.4398720264435,4,Pure_Forward.csv,READVersionB.csv,"Read Pure F B","Read Pure F B",VILLAIN,BAD,Study1,F,68,40,Test,User,-,,Recall,Recall2,3105,evil,0,2599,2909,0,0,,1
w10126362,js777kqnr7,Nick_Dissertation_EX2_EP,1,159,2022-01-04T19:22:40+00:00,2.4559679031372,4,Pure_Forward.csv,READVersionB.csv,"Read Pure F B","Read Pure F B",GEOLOGY,ROCK,Study1,F,19,10,Test,User,-,,Recall,Recall2,1852,rock,100,1090,1416,1,1,,1
w10126362,js777kqnr7,Nick_Dissertation_EX2_EP,1,160,2022-01-04T19:22:43+00:00,3.8685550689697,4,Pure_Forward.csv,READVersionB.csv,"Read Pure F B","Read Pure F B",THIMBLE,THREAD,Study1,F,71,21,Test,User,-,,Recall,Recall2,3537,thumb,36.363636363636,1880,3163,0,0,,1
w10126362,js777kqnr7,Nick_Dissertation_EX2_EP,1,161,2022-01-04T19:22:47+00:00,3.1396079063416,4,Pure_Forward.csv,READVersionB.csv,"Read Pure F B","Read Pure F B",WAGE,MONEY,Study1,F,8,22,Test,User,-,,Recall,Recall2,2797,money,100,1939,2680,1,1,,1
w10126362,js777kqnr7,Nick_Dissertation_EX2_EP,1,162,2022-01-04T19:22:50+00:00,3.8124289512634,4,Pure_Forward.csv,READVersionB.csv,"Read Pure F B","Read Pure F B",SARDINE,FISH,Study1,F,80,43,Test,User,-,,Recall,Recall2,3443,fish,100,2200,3252,1,1,,1
w10126362,js777kqnr7,Nick_Dissertation_EX2_EP,1,163,2022-01-04T19:22:52+00:00,1.8996620178223,4,Pure_Forward.csv,READVersionB.csv,"Read Pure F B","Read Pure F B",TUNA,FISH,Study1,F,25,16,Test,User,-,,Recall,Recall2,1561,fish,100,1114,1398,1,1,,1
w10126362,js777kqnr7,Nick_Dissertation_EX2_EP,1,164,2022-01-04T19:22:54+00:00,1.7754600048065,4,Pure_Forward.csv,READVersionB.csv,"Read Pure F B","Read Pure F B",WINDSHIELD,CAR,Study1,F,67,37,Test,User,-,,Recall,Recall2,1445,car,100,1092,1316,1,1,,1
w10126362,js777kqnr7,Nick_Dissertation_EX2_EP,1,165,2022-01-04T19:22:56+00:00,1.8885321617126,4,Pure_Forward.csv,READVersionB.csv,"Read Pure F B","Read Pure F B",HERD,COW,Study1,F,22,35,Test,User,-,,Recall,Recall2,1558,cow,100,1191,1445,1,1,,1
w10126362,js777kqnr7,Nick_Dissertation_EX2_EP,1,166,2022-01-04T19:23:00+00:00,3.6355879306793,4,Pure_Forward.csv,READVersionB.csv,"Read Pure F B","Read Pure F B",HORNET,STING,Study1,F,11,15,Test,User,-,,Recall,Recall2,3104,bee,0,2672,2932,0,0,,1
w10126362,js777kqnr7,Nick_Dissertation_EX2_EP,1,167,2022-01-04T19:23:02+00:00,2.2474720478058,4,Pure_Forward.csv,READVersionB.csv,"Read Pure F B","Read Pure F B",CHISEL,HAMMER,Study1,F,9,12,Test,User,-,,Recall,Recall2,1903,,0,-1,-1,0,0,,1
w10126362,js777kqnr7,Nick_Dissertation_EX2_EP,1,168,2022-01-04T19:23:06+00:00,4.0192158222198,4,Pure_Forward.csv,READVersionB.csv,"Read Pure F B","Read Pure F B",BITTER,COLD,Study1,F,12,41,Test,User,-,,Recall,Recall2,3698,sweet,0,2425,3606,0,0,,1
w10126362,js777kqnr7,Nick_Dissertation_EX2_EP,1,169,2022-01-04T19:23:10+00:00,3.7971200942993,4,Pure_Forward.csv,READVersionB.csv,"Read Pure F B","Read Pure F B",FLIP,TURN,Study1,F,66,25,Test,User,-,,Recall,Recall2,3421,up,33.333333333333,3157,3227,0,0,,1
w10126362,js777kqnr7,Nick_Dissertation_EX2_EP,1,170,2022-01-04T19:23:12+00:00,2.2371580600739,4,Pure_Forward.csv,READVersionB.csv,"Read Pure F B","Read Pure F B",NAP,SLEEP,Study1,F,84,38,Test,User,-,,Recall,Recall2,1910,sleep,100,1276,1767,1,1,,1
w10126362,js777kqnr7,Nick_Dissertation_EX2_EP,1,171,2022-01-04T19:23:14+00:00,2.3437509536743,4,Pure_Forward.csv,READVersionB.csv,"Read Pure F B","Read Pure F B",DIGESTION,STOMACH,Study1,F,7,18,Test,User,-,,Recall,Recall2,1974,stomach,100,1226,1829,1,1,,1
w10126362,js777kqnr7,Nick_Dissertation_EX2_EP,1,172,2022-01-04T19:23:16+00:00,2.1814410686493,4,Pure_Forward.csv,READVersionB.csv,"Read Pure F B","Read Pure F B",LEAGUE,BASEBALL,Study1,F,81,7,Test,User,-,,Recall,Recall2,1856,baseball,100,964,1742,1,1,,1
w10126362,js777kqnr7,Nick_Dissertation_EX2_EP,1,173,2022-01-04T19:23:18+00:00,1.8634068965912,4,Pure_Forward.csv,READVersionB.csv,"Read Pure F B","Read Pure F B",CREDIT,CARD,Study1,F,23,29,Test,User,-,,Recall,Recall2,1526,card,100,1004,1400,1,1,,1
w10126362,js777kqnr7,Nick_Dissertation_EX2_EP,1,174,2022-01-04T19:23:20+00:00,1.9248349666595,4,Pure_Forward.csv,READVersionB.csv,"Read Pure F B","Read Pure F B",PAW,DOG,Study1,F,15,44,Test,User,-,,Recall,Recall2,1529,dog,100,1259,1434,1,1,,1
w10126362,js777kqnr7,Nick_Dissertation_EX2_EP,1,175,2022-01-04T19:23:23+00:00,2.3793880939484,4,Pure_Forward.csv,READVersionB.csv,"Read Pure F B","Read Pure F B",EDITOR,NEWS,Study1,F,10,13,Test,User,-,,Recall,Recall2,1975,writer,20,1182,1821,0,0,,1
w10126362,js777kqnr7,Nick_Dissertation_EX2_EP,1,176,2022-01-04T19:23:25+00:00,2.56427693367,4,Pure_Forward.csv,READVersionB.csv,"Read Pure F B","Read Pure F B",SWAN,BIRD,Study1,F,14,45,Test,User,-,,Recall,Recall2,2240,bird,100,1603,2156,1,1,,1
w10126362,js777kqnr7,Nick_Dissertation_EX2_EP,1,177,2022-01-04T19:23:27+00:00,1.9468080997467,4,Pure_Forward.csv,READVersionB.csv,"Read Pure F B","Read Pure F B",STRAWBERRY,FRUIT,Study1,F,74,9,Test,User,-,,Recall,Recall2,1603,fruit,100,1035,1478,1,1,,1
w10126362,js777kqnr7,Nick_Dissertation_EX2_EP,1,178,2022-01-04T19:23:31+00:00,4.1119408607483,4,Pure_Forward.csv,READVersionB.csv,"Read Pure F B","Read Pure F B",DELINQUENT,BAD,Study1,F,6,20,Test,User,-,,Recall,Recall2,3774,evil,0,2044,3133,0,0,,1
w10126362,js777kqnr7,Nick_Dissertation_EX2_EP,1,179,2022-01-04T19:23:33+00:00,2.1583800315857,4,Pure_Forward.csv,READVersionB.csv,"Read Pure F B","Read Pure F B",BANKER,MONEY,Study1,F,82,11,Test,User,-,,Recall,Recall2,1829,money,100,1206,1621,1,1,,1
w10126362,js777kqnr7,Nick_Dissertation_EX2_EP,1,180,2022-01-04T19:23:37+00:00,3.3497030735016,4,Pure_Forward.csv,READVersionB.csv,"Read Pure F B","Read Pure F B",AIRCRAFT,PLANE,Study1,F,79,31,Test,User,-,,Recall,Recall2,2994,plane,100,1068,2873,1,1,,1
w10126362,js777kqnr7,Nick_Dissertation_EX2_EP,1,181,2022-01-04T19:23:41+00:00,4.4359629154205,4,Pure_Forward.csv,READVersionB.csv,"Read Pure F B","Read Pure F B",PANTHER,CAT,Study1,F,76,19,Test,User,-,,Recall,Recall2,4104,tiger,25,3588,3987,0,0,,1
w10126362,js777kqnr7,Nick_Dissertation_EX2_EP,1,182,2022-01-04T19:23:43+00:00,2.181144952774,4,Pure_Forward.csv,READVersionB.csv,"Read Pure F B","Read Pure F B",BALLOON,POP,Study1,F,73,17,Test,User,-,,Recall,Recall2,1847,pop,100,1094,1313,1,1,,1
w10126362,js777kqnr7,Nick_Dissertation_EX2_EP,1,183,2022-01-04T19:23:46+00:00,2.3091320991516,4,Pure_Forward.csv,READVersionB.csv,"Read Pure F B","Read Pure F B",ROOT,PLANT,Study1,F,13,27,Test,User,-,,Recall,Recall2,1952,,0,-1,-1,0,0,,1
w10126362,js777kqnr7,Nick_Dissertation_EX2_EP,1,184,2022-01-04T19:23:48+00:00,2.2285270690918,4,Pure_Forward.csv,READVersionB.csv,"Read Pure F B","Read Pure F B",REVENGE,EVEN,Study1,F,72,23,Test,User,-,,Recall,Recall2,1886,even,100,1386,1726,1,1,,1
w10126362,js777kqnr7,Nick_Dissertation_EX2_EP,1,185,2022-01-04T19:23:51+00:00,2.9082369804382,4,Pure_Forward.csv,READVersionB.csv,"Read Pure F B","Read Pure F B",DISCUSSION,TALK,Study1,F,21,33,Test,User,-,,Recall,Recall2,2575,board,22.222222222222,2032,2470,0,0,,1
w10126362,js777kqnr7,Nick_Dissertation_EX2_EP,1,186,2022-01-04T19:23:54+00:00,3.080267906189,4,Pure_Forward.csv,READVersionB.csv,"Read Pure F B","Read Pure F B",COFFIN,DEAD,Study1,F,78,24,Test,User,-,,Recall,Recall2,2751,d,40,2064,2629,0,0,,1
w10126362,js777kqnr7,Nick_Dissertation_EX2_EP,1,187,2022-01-04T19:23:59+00:00,5.5074961185455,4,Pure_Forward.csv,READVersionB.csv,"Read Pure F B","Read Pure F B",HYGIENE,CLEAN,Study1,F,17,30,Test,User,-,,Recall,Recall2,5162,clean,100,2577,4823,1,1,,1
w10126362,js777kqnr7,Nick_Dissertation_EX2_EP,1,188,2022-01-04T19:24:01+00:00,1.9650928974152,4,Pure_Forward.csv,READVersionB.csv,"Read Pure F B","Read Pure F B",REVOLUTION,WAR,Study1,F,20,26,Test,User,-,,Recall,Recall2,1631,ear,66.666666666667,1257,1496,0,0,,1
w10126362,js777kqnr7,Nick_Dissertation_EX2_EP,1,189,2022-01-04T19:24:02+00:00,1.0909731388092,4,Pure_Forward.csv,READVersionB.csv,"Read Pure F B","Read Pure F B",,,,,,0,Instruct,User,-,"You have completed this section. Please press Enter.",,Instruct7,729,,,-1,-1,,,,1
w10126362,js777kqnr7,Nick_Dissertation_EX2_EP,1,190,2022-01-04T19:24:05+00:00,2.6312439441681,4,Pure_Forward.csv,READVersionB.csv,"Read Pure F B","Read Pure F B",,,,,,0,Instruct,User,-,"The following screen will ask you a few questions abour your experience today. You must complete these questions to receive credit.",,Instruct8,2306,,,-1,-1,,,,1
