Username,ID,ExperimentName,Session,Trial,Date,TimeDif,"Condition Number","Stimuli File","Order File","Condition Description","Condition Notes",Stimuli*Cue,Stimuli*Answer,Stimuli*Shuffle,"Stimuli*Stimuli Notes",Stimuli*Value,Procedure*Item,"Procedure*Trial Type","Procedure*Max Time","Procedure*Min Time",Procedure*Text,"Procedure*Procedure Notes",Procedure*Shuffle,"Procedure*Post 1 Item","Procedure*Post 1 Trial Type","Procedure*Post 1 Max Time","Procedure*Post 1 Min Time",Procedure*,"Procedure*Post 1 Text",Response*RT,Response*Response,Response*Accuracy,Response*RTfirst,Response*RTlast,Response*strictAcc,Response*lenientAcc,Response*focus,Response*post1_JOL,Response*post1_RT,Response*post1_RTfirst,Response*post1_RTlast,Response*Focus,Response*post1_Focus
w10090726,j5885tk4rl,Nick_Dissertation_EX2_EP,1,1,2022-04-26T18:22:37+00:00,6.8658449649811,9,Pure_Forward.csv,FREQVersionA.csv,"Freq Pure F A","Freq Pure F A",,,,,,0,Instruct,-,5,"In this section, you will be presented with a series of word pairs.",Initial_Instruct,Instruct1,,No,,,,,6769,,,-1,-1,,,,,,,,1
w10090726,j5885tk4rl,Nick_Dissertation_EX2_EP,1,2,2022-04-26T18:22:46+00:00,8.7735860347748,9,Pure_Forward.csv,FREQVersionA.csv,"Freq Pure F A","Freq Pure F A",,,,,,0,Instruct,-,5,"As you study, you will be asked to rate how often the words in each pair are used together, using a 0-100 scale.",,Instruct13,,No,,,,,8633,,,-1,-1,,,,,,,,1
w10090726,j5885tk4rl,Nick_Dissertation_EX2_EP,1,3,2022-04-26T18:22:58+00:00,12.119258880615,9,Pure_Forward.csv,FREQVersionA.csv,"Freq Pure F A","Freq Pure F A",,,,,,0,Instruct,-,10,"For example, if you are given the pair CAT - DOG, a rating of 0 indicates that the words DOG and CAT are not used together often in language, while a rating of 100 indicates that DOG and CAT are commonly used together.",,Instruct14,,No,,,,,11985,,,-1,-1,,,,,,,,1
w10090726,j5885tk4rl,Nick_Dissertation_EX2_EP,1,4,2022-04-26T18:23:13+00:00,15.551547050476,9,Pure_Forward.csv,FREQVersionA.csv,"Freq Pure F A","Freq Pure F A",,,,,,0,Instruct,-,15,"When making your ratings, it is criticial that you use the full range of the scale. You will be disqualified for only giving ratings of 0 or 100! Each word will be displayed on the computer screen for 4 seconds. You will then have 4 seconds to make your rating. The screen will automatically move to the next pair when time is up.",,Instruct15,,No,,,,,15426,,,-1,-1,,,,,,,,1
w10090726,j5885tk4rl,Nick_Dissertation_EX2_EP,1,5,2022-04-26T18:23:14+00:00,0.58696413040161,9,Pure_Forward.csv,FREQVersionA.csv,"Freq Pure F A","Freq Pure F A",,,,,,0,Instruct,User,-,"You will now begin the study. Press Enter when you are ready to begin.",,Instruct16,,No,,,,,490,,,-1,-1,,,,,,,,1
w10090726,j5885tk4rl,Nick_Dissertation_EX2_EP,1,6,2022-04-26T18:23:23+00:00,9.2813520431519,9,Pure_Forward.csv,FREQVersionA.csv,"Freq Pure F A","Freq Pure F A",BASEBALL,CATCHER,BUFFER1,Buffer,2,6,Study,4,4,,Study/JOL,BUFFER,6,FREQ,5,5,,"How often are these two words used together?|Type your response on a scale from 0-100 and then press Enter.",4002,,,-1,-1,,,,100,5002,2513,2830,1,1
w10090726,j5885tk4rl,Nick_Dissertation_EX2_EP,1,7,2022-04-26T18:23:33+00:00,9.2879297733307,9,Pure_Forward.csv,FREQVersionA.csv,"Freq Pure F A","Freq Pure F A",SPACE,JAM,BUFFER1,Buffer,5,5,Study,4,4,,Study/JOL,BUFFER,5,FREQ,5,5,,"How often are these two words used together?|Type your response on a scale from 0-100 and then press Enter.",4003,,,-1,-1,,,,100,5002,2162,2413,1,1
w10090726,j5885tk4rl,Nick_Dissertation_EX2_EP,1,8,2022-04-26T18:23:42+00:00,9.2818250656128,9,Pure_Forward.csv,FREQVersionA.csv,"Freq Pure F A","Freq Pure F A",TREES,GREEN,BUFFER1,Buffer,1,3,Study,4,4,,Study/JOL,BUFFER,3,FREQ,5,5,,"How often are these two words used together?|Type your response on a scale from 0-100 and then press Enter.",4003,,,-1,-1,,,,90,5002,2779,2979,1,1
w10090726,j5885tk4rl,Nick_Dissertation_EX2_EP,1,9,2022-04-26T18:23:51+00:00,9.2678940296173,9,Pure_Forward.csv,FREQVersionA.csv,"Freq Pure F A","Freq Pure F A",SCARE,HIDE,BUFFER1,Buffer,4,2,Study,4,4,,Study/JOL,BUFFER,2,FREQ,5,5,,"How often are these two words used together?|Type your response on a scale from 0-100 and then press Enter.",4002,,,-1,-1,,,,98,5002,2586,3123,1,1
w10090726,j5885tk4rl,Nick_Dissertation_EX2_EP,1,10,2022-04-26T18:24:00+00:00,9.2861800193787,9,Pure_Forward.csv,FREQVersionA.csv,"Freq Pure F A","Freq Pure F A",PEANUT,BUTTER,BUFFER1,Buffer,3,4,Study,4,4,,Study/JOL,BUFFER,4,FREQ,5,5,,"How often are these two words used together?|Type your response on a scale from 0-100 and then press Enter.",4002,,,-1,-1,,,,100,5001,2045,2265,1,1
w10090726,j5885tk4rl,Nick_Dissertation_EX2_EP,1,11,2022-04-26T18:24:10+00:00,9.3320050239563,9,Pure_Forward.csv,FREQVersionA.csv,"Freq Pure F A","Freq Pure F A",PAW,DOG,Study1,F,15,46,Study,4,4,,Study/JOL,"Study Phase",46,FREQ,5,5,,"How often are these two words used together?|Type your response on a scale from 0-100 and then press Enter.",4000,,,-1,-1,,,,75,5002,3975,4595,1,1
w10090726,j5885tk4rl,Nick_Dissertation_EX2_EP,1,12,2022-04-26T18:24:19+00:00,9.2901780605316,9,Pure_Forward.csv,FREQVersionA.csv,"Freq Pure F A","Freq Pure F A",DISCUSSION,TALK,Study1,F,21,24,Study,4,4,,Study/JOL,"Study Phase",24,FREQ,5,5,,"How often are these two words used together?|Type your response on a scale from 0-100 and then press Enter.",4004,,,-1,-1,,,,100,5002,1893,2177,1,1
w10090726,j5885tk4rl,Nick_Dissertation_EX2_EP,1,13,2022-04-26T18:24:28+00:00,9.2613818645477,9,Pure_Forward.csv,FREQVersionA.csv,"Freq Pure F A","Freq Pure F A",REVOLUTION,WAR,Study1,F,20,15,Study,4,4,,Study/JOL,"Study Phase",15,FREQ,5,5,,"How often are these two words used together?|Type your response on a scale from 0-100 and then press Enter.",4001,,,-1,-1,,,,99,5004,1986,2155,1,1
w10090726,j5885tk4rl,Nick_Dissertation_EX2_EP,1,14,2022-04-26T18:24:38+00:00,9.2750780582428,9,Pure_Forward.csv,FREQVersionA.csv,"Freq Pure F A","Freq Pure F A",COFFIN,DEAD,Study1,F,78,17,Study,4,4,,Study/JOL,"Study Phase",17,FREQ,5,5,,"How often are these two words used together?|Type your response on a scale from 0-100 and then press Enter.",4010,,,-1,-1,,,,100,5006,2076,2290,1,1
w10090726,j5885tk4rl,Nick_Dissertation_EX2_EP,1,15,2022-04-26T18:24:47+00:00,9.3075070381165,9,Pure_Forward.csv,FREQVersionA.csv,"Freq Pure F A","Freq Pure F A",BALLOON,POP,Study1,F,73,44,Study,4,4,,Study/JOL,"Study Phase",44,FREQ,5,5,,"How often are these two words used together?|Type your response on a scale from 0-100 and then press Enter.",4001,,,-1,-1,,,,78,5002,2725,4383,1,1
w10090726,j5885tk4rl,Nick_Dissertation_EX2_EP,1,16,2022-04-26T18:24:56+00:00,9.2677268981934,9,Pure_Forward.csv,FREQVersionA.csv,"Freq Pure F A","Freq Pure F A",TUNA,FISH,Study1,F,25,34,Study,4,4,,Study/JOL,"Study Phase",34,FREQ,5,5,,"How often are these two words used together?|Type your response on a scale from 0-100 and then press Enter.",4001,,,-1,-1,,,,50,5002,2083,3261,1,1
w10090726,j5885tk4rl,Nick_Dissertation_EX2_EP,1,17,2022-04-26T18:25:05+00:00,9.2632219791412,9,Pure_Forward.csv,FREQVersionA.csv,"Freq Pure F A","Freq Pure F A",REVENGE,EVEN,Study1,F,72,31,Study,4,4,,Study/JOL,"Study Phase",31,FREQ,5,5,,"How often are these two words used together?|Type your response on a scale from 0-100 and then press Enter.",4001,,,-1,-1,,,,5,5001,3378,4995,1,1
w10090726,j5885tk4rl,Nick_Dissertation_EX2_EP,1,18,2022-04-26T18:25:15+00:00,9.2762081623077,9,Pure_Forward.csv,FREQVersionA.csv,"Freq Pure F A","Freq Pure F A",THIMBLE,THREAD,Study1,F,71,13,Study,4,4,,Study/JOL,"Study Phase",13,FREQ,5,5,,"How often are these two words used together?|Type your response on a scale from 0-100 and then press Enter.",4003,,,-1,-1,,,,,5004,-1,-1,1,1
w10090726,j5885tk4rl,Nick_Dissertation_EX2_EP,1,19,2022-04-26T18:25:24+00:00,9.2626829147339,9,Pure_Forward.csv,FREQVersionA.csv,"Freq Pure F A","Freq Pure F A",HERD,COW,Study1,F,22,22,Study,4,4,,Study/JOL,"Study Phase",22,FREQ,5,5,,"How often are these two words used together?|Type your response on a scale from 0-100 and then press Enter.",4001,,,-1,-1,,,,99,5001,2503,2637,1,1
w10090726,j5885tk4rl,Nick_Dissertation_EX2_EP,1,20,2022-04-26T18:25:33+00:00,9.2910308837891,9,Pure_Forward.csv,FREQVersionA.csv,"Freq Pure F A","Freq Pure F A",CHISEL,HAMMER,Study1,F,9,32,Study,4,4,,Study/JOL,"Study Phase",32,FREQ,5,5,,"How often are these two words used together?|Type your response on a scale from 0-100 and then press Enter.",4002,,,-1,-1,,,,45,5001,2244,2427,1,1
w10090726,j5885tk4rl,Nick_Dissertation_EX2_EP,1,21,2022-04-26T18:25:42+00:00,9.2961621284485,9,Pure_Forward.csv,FREQVersionA.csv,"Freq Pure F A","Freq Pure F A",BITTER,COLD,Study1,F,12,37,Study,4,4,,Study/JOL,"Study Phase",37,FREQ,5,5,,"How often are these two words used together?|Type your response on a scale from 0-100 and then press Enter.",4001,,,-1,-1,,,,45,5014,3555,3705,1,1
w10090726,j5885tk4rl,Nick_Dissertation_EX2_EP,1,22,2022-04-26T18:25:52+00:00,9.2785270214081,9,Pure_Forward.csv,FREQVersionA.csv,"Freq Pure F A","Freq Pure F A",DIGESTION,STOMACH,Study1,F,7,45,Study,4,4,,Study/JOL,"Study Phase",45,FREQ,5,5,,"How often are these two words used together?|Type your response on a scale from 0-100 and then press Enter.",4000,,,-1,-1,,,,88,5002,3440,3590,1,1
w10090726,j5885tk4rl,Nick_Dissertation_EX2_EP,1,23,2022-04-26T18:26:01+00:00,9.2816619873047,9,Pure_Forward.csv,FREQVersionA.csv,"Freq Pure F A","Freq Pure F A",FLIP,TURN,Study1,F,66,8,Study,4,4,,Study/JOL,"Study Phase",8,FREQ,5,5,,"How often are these two words used together?|Type your response on a scale from 0-100 and then press Enter.",4002,,,-1,-1,,,,99,5014,2327,2477,1,1
w10090726,j5885tk4rl,Nick_Dissertation_EX2_EP,1,24,2022-04-26T18:26:10+00:00,9.2917990684509,9,Pure_Forward.csv,FREQVersionA.csv,"Freq Pure F A","Freq Pure F A",ORCHID,FLOWER,Study1,F,24,14,Study,4,4,,Study/JOL,"Study Phase",14,FREQ,5,5,,"How often are these two words used together?|Type your response on a scale from 0-100 and then press Enter.",4001,,,-1,-1,,,,55,5003,3594,3777,1,1
w10090726,j5885tk4rl,Nick_Dissertation_EX2_EP,1,25,2022-04-26T18:26:20+00:00,9.2851839065552,9,Pure_Forward.csv,FREQVersionA.csv,"Freq Pure F A","Freq Pure F A",ROOT,PLANT,Study1,F,13,43,Study,4,4,,Study/JOL,"Study Phase",43,FREQ,5,5,,"How often are these two words used together?|Type your response on a scale from 0-100 and then press Enter.",4002,,,-1,-1,,,,100,5002,2008,2312,1,1
w10090726,j5885tk4rl,Nick_Dissertation_EX2_EP,1,26,2022-04-26T18:26:29+00:00,9.2750959396362,9,Pure_Forward.csv,FREQVersionA.csv,"Freq Pure F A","Freq Pure F A",PENGUIN,BIRD,Study1,F,69,20,Study,4,4,,Study/JOL,"Study Phase",20,FREQ,5,5,,"How often are these two words used together?|Type your response on a scale from 0-100 and then press Enter.",4002,,,-1,-1,,,,70,5003,2520,3742,1,1
w10090726,j5885tk4rl,Nick_Dissertation_EX2_EP,1,27,2022-04-26T18:26:38+00:00,9.2955410480499,9,Pure_Forward.csv,FREQVersionA.csv,"Freq Pure F A","Freq Pure F A",SARDINE,FISH,Study1,F,80,42,Study,4,4,,Study/JOL,"Study Phase",42,FREQ,5,5,,"How often are these two words used together?|Type your response on a scale from 0-100 and then press Enter.",4002,,,-1,-1,,,,25,5002,2833,3083,1,1
w10090726,j5885tk4rl,Nick_Dissertation_EX2_EP,1,28,2022-04-26T18:26:48+00:00,9.5485119819641,9,Pure_Forward.csv,FREQVersionA.csv,"Freq Pure F A","Freq Pure F A",AIRCRAFT,PLANE,Study1,F,79,27,Study,4,4,,Study/JOL,"Study Phase",27,FREQ,5,5,,"How often are these two words used together?|Type your response on a scale from 0-100 and then press Enter.",4012,,,-1,-1,,,,100,5012,2170,2405,1,1
w10090726,j5885tk4rl,Nick_Dissertation_EX2_EP,1,29,2022-04-26T18:26:58+00:00,10.432657003403,9,Pure_Forward.csv,FREQVersionA.csv,"Freq Pure F A","Freq Pure F A",BRIDGE,WATER,Study1,F,18,9,Study,4,4,,Study/JOL,"Study Phase",9,FREQ,5,5,,"How often are these two words used together?|Type your response on a scale from 0-100 and then press Enter.",4003,,,-1,-1,,,,75,5005,3735,3919,1,1
w10090726,j5885tk4rl,Nick_Dissertation_EX2_EP,1,30,2022-04-26T18:27:08+00:00,10.292092084885,9,Pure_Forward.csv,FREQVersionA.csv,"Freq Pure F A","Freq Pure F A",EDITOR,NEWS,Study1,F,10,11,Study,4,4,,Study/JOL,"Study Phase",11,FREQ,5,5,,"How often are these two words used together?|Type your response on a scale from 0-100 and then press Enter.",4004,,,-1,-1,,,,77,5002,3287,3404,1,0.8
w10090726,j5885tk4rl,Nick_Dissertation_EX2_EP,1,31,2022-04-26T18:27:18+00:00,9.3676750659943,9,Pure_Forward.csv,FREQVersionA.csv,"Freq Pure F A","Freq Pure F A",TRUTHFUL,HONEST,Study1,F,83,39,Study,4,4,,Study/JOL,"Study Phase",39,FREQ,5,5,,"How often are these two words used together?|Type your response on a scale from 0-100 and then press Enter.",4003,,,-1,-1,,,,79,5002,3594,3792,1,1
w10090726,j5885tk4rl,Nick_Dissertation_EX2_EP,1,32,2022-04-26T18:27:27+00:00,9.3321747779846,9,Pure_Forward.csv,FREQVersionA.csv,"Freq Pure F A","Freq Pure F A",PANTHER,CAT,Study1,F,76,10,Study,4,4,,Study/JOL,"Study Phase",10,FREQ,5,5,,"How often are these two words used together?|Type your response on a scale from 0-100 and then press Enter.",4002,,,-1,-1,,,,66,5003,1894,2067,1,1
w10090726,j5885tk4rl,Nick_Dissertation_EX2_EP,1,33,2022-04-26T18:27:36+00:00,9.2730832099915,9,Pure_Forward.csv,FREQVersionA.csv,"Freq Pure F A","Freq Pure F A",VILLAIN,BAD,Study1,F,68,7,Study,4,4,,Study/JOL,"Study Phase",7,FREQ,5,5,,"How often are these two words used together?|Type your response on a scale from 0-100 and then press Enter.",4001,,,-1,-1,,,,100,5001,2386,3525,1,1
w10090726,j5885tk4rl,Nick_Dissertation_EX2_EP,1,34,2022-04-26T18:27:46+00:00,9.2800099849701,9,Pure_Forward.csv,FREQVersionA.csv,"Freq Pure F A","Freq Pure F A",WAY,OUT,Study1,F,16,30,Study,4,4,,Study/JOL,"Study Phase",30,FREQ,5,5,,"How often are these two words used together?|Type your response on a scale from 0-100 and then press Enter.",4002,,,-1,-1,,,,100,5002,2371,2690,1,1
w10090726,j5885tk4rl,Nick_Dissertation_EX2_EP,1,35,2022-04-26T18:27:55+00:00,9.269791841507,9,Pure_Forward.csv,FREQVersionA.csv,"Freq Pure F A","Freq Pure F A",NAP,SLEEP,Study1,F,84,36,Study,4,4,,Study/JOL,"Study Phase",36,FREQ,5,5,,"How often are these two words used together?|Type your response on a scale from 0-100 and then press Enter.",4001,,,-1,-1,,,,100,5003,2774,3077,1,1
w10090726,j5885tk4rl,Nick_Dissertation_EX2_EP,1,36,2022-04-26T18:28:04+00:00,9.2896239757538,9,Pure_Forward.csv,FREQVersionA.csv,"Freq Pure F A","Freq Pure F A",HORNET,STING,Study1,F,11,12,Study,4,4,,Study/JOL,"Study Phase",12,FREQ,5,5,,"How often are these two words used together?|Type your response on a scale from 0-100 and then press Enter.",4001,,,-1,-1,,,,78,5003,3908,4074,1,1
w10090726,j5885tk4rl,Nick_Dissertation_EX2_EP,1,37,2022-04-26T18:28:14+00:00,9.265300989151,9,Pure_Forward.csv,FREQVersionA.csv,"Freq Pure F A","Freq Pure F A",STRAWBERRY,FRUIT,Study1,F,74,38,Study,4,4,,Study/JOL,"Study Phase",38,FREQ,5,5,,"How often are these two words used together?|Type your response on a scale from 0-100 and then press Enter.",4002,,,-1,-1,,,,9,5002,4959,4959,1,1
w10090726,j5885tk4rl,Nick_Dissertation_EX2_EP,1,38,2022-04-26T18:28:23+00:00,9.2639570236206,9,Pure_Forward.csv,FREQVersionA.csv,"Freq Pure F A","Freq Pure F A",HYGIENE,CLEAN,Study1,F,17,41,Study,4,4,,Study/JOL,"Study Phase",41,FREQ,5,5,,"How often are these two words used together?|Type your response on a scale from 0-100 and then press Enter.",4002,,,-1,-1,,,,100,5001,3294,3597,1,1
w10090726,j5885tk4rl,Nick_Dissertation_EX2_EP,1,39,2022-04-26T18:28:32+00:00,9.2938799858093,9,Pure_Forward.csv,FREQVersionA.csv,"Freq Pure F A","Freq Pure F A",WINDSHIELD,CAR,Study1,F,67,33,Study,4,4,,Study/JOL,"Study Phase",33,FREQ,5,5,,"How often are these two words used together?|Type your response on a scale from 0-100 and then press Enter.",4003,,,-1,-1,,,,100,5001,4425,4675,1,1
w10090726,j5885tk4rl,Nick_Dissertation_EX2_EP,1,40,2022-04-26T18:28:41+00:00,9.2566151618958,9,Pure_Forward.csv,FREQVersionA.csv,"Freq Pure F A","Freq Pure F A",BANKER,MONEY,Study1,F,82,26,Study,4,4,,Study/JOL,"Study Phase",26,FREQ,5,5,,"How often are these two words used together?|Type your response on a scale from 0-100 and then press Enter.",4001,,,-1,-1,,,,100,5002,3477,3962,1,1
w10090726,j5885tk4rl,Nick_Dissertation_EX2_EP,1,41,2022-04-26T18:28:51+00:00,9.2930188179016,9,Pure_Forward.csv,FREQVersionA.csv,"Freq Pure F A","Freq Pure F A",CREDIT,CARD,Study1,F,23,29,Study,4,4,,Study/JOL,"Study Phase",29,FREQ,5,5,,"How often are these two words used together?|Type your response on a scale from 0-100 and then press Enter.",4001,,,-1,-1,,,,100,5001,3083,4351,1,1
w10090726,j5885tk4rl,Nick_Dissertation_EX2_EP,1,42,2022-04-26T18:29:00+00:00,9.2763772010803,9,Pure_Forward.csv,FREQVersionA.csv,"Freq Pure F A","Freq Pure F A",BRAWL,FIGHT,Study1,F,85,18,Study,4,4,,Study/JOL,"Study Phase",18,FREQ,5,5,,"How often are these two words used together?|Type your response on a scale from 0-100 and then press Enter.",4003,,,-1,-1,,,,78,5002,3798,3948,1,1
w10090726,j5885tk4rl,Nick_Dissertation_EX2_EP,1,43,2022-04-26T18:29:09+00:00,9.2719929218292,9,Pure_Forward.csv,FREQVersionA.csv,"Freq Pure F A","Freq Pure F A",SWAN,BIRD,Study1,F,14,19,Study,4,4,,Study/JOL,"Study Phase",19,FREQ,5,5,,"How often are these two words used together?|Type your response on a scale from 0-100 and then press Enter.",4002,,,-1,-1,,,,15,5002,2874,2935,1,1
w10090726,j5885tk4rl,Nick_Dissertation_EX2_EP,1,44,2022-04-26T18:29:18+00:00,9.2909960746765,9,Pure_Forward.csv,FREQVersionA.csv,"Freq Pure F A","Freq Pure F A",FAVORITE,BEST,Study1,F,75,28,Study,4,4,,Study/JOL,"Study Phase",28,FREQ,5,5,,"How often are these two words used together?|Type your response on a scale from 0-100 and then press Enter.",4002,,,-1,-1,,,,35,5002,4392,4517,1,1
w10090726,j5885tk4rl,Nick_Dissertation_EX2_EP,1,45,2022-04-26T18:29:28+00:00,9.2905449867249,9,Pure_Forward.csv,FREQVersionA.csv,"Freq Pure F A","Freq Pure F A",ACTRESS,STAR,Study1,F,70,35,Study,4,4,,Study/JOL,"Study Phase",35,FREQ,5,5,,"How often are these two words used together?|Type your response on a scale from 0-100 and then press Enter.",4002,,,-1,-1,,,,55,5001,2874,3007,1,1
w10090726,j5885tk4rl,Nick_Dissertation_EX2_EP,1,46,2022-04-26T18:29:37+00:00,9.2788059711456,9,Pure_Forward.csv,FREQVersionA.csv,"Freq Pure F A","Freq Pure F A",DELINQUENT,BAD,Study1,F,6,23,Study,4,4,,Study/JOL,"Study Phase",23,FREQ,5,5,,"How often are these two words used together?|Type your response on a scale from 0-100 and then press Enter.",4010,,,-1,-1,,,,77,5004,3457,3958,1,1
w10090726,j5885tk4rl,Nick_Dissertation_EX2_EP,1,47,2022-04-26T18:29:46+00:00,9.2931590080261,9,Pure_Forward.csv,FREQVersionA.csv,"Freq Pure F A","Freq Pure F A",WAGE,MONEY,Study1,F,8,21,Study,4,4,,Study/JOL,"Study Phase",21,FREQ,5,5,,"How often are these two words used together?|Type your response on a scale from 0-100 and then press Enter.",4001,,,-1,-1,,,,100,5002,2972,3187,1,1
w10090726,j5885tk4rl,Nick_Dissertation_EX2_EP,1,48,2022-04-26T18:29:56+00:00,9.2806808948517,9,Pure_Forward.csv,FREQVersionA.csv,"Freq Pure F A","Freq Pure F A",LEAGUE,BASEBALL,Study1,F,81,40,Study,4,4,,Study/JOL,"Study Phase",40,FREQ,5,5,,"How often are these two words used together?|Type your response on a scale from 0-100 and then press Enter.",4001,,,-1,-1,,,,55,5002,4005,4389,1,1
w10090726,j5885tk4rl,Nick_Dissertation_EX2_EP,1,49,2022-04-26T18:30:05+00:00,9.2877311706543,9,Pure_Forward.csv,FREQVersionA.csv,"Freq Pure F A","Freq Pure F A",BREAKABLE,GLASS,Study1,F,77,25,Study,4,4,,Study/JOL,"Study Phase",25,FREQ,5,5,,"How often are these two words used together?|Type your response on a scale from 0-100 and then press Enter.",4002,,,-1,-1,,,,45,5002,4235,4720,1,1
w10090726,j5885tk4rl,Nick_Dissertation_EX2_EP,1,50,2022-04-26T18:30:14+00:00,9.2777538299561,9,Pure_Forward.csv,FREQVersionA.csv,"Freq Pure F A","Freq Pure F A",GEOLOGY,ROCK,Study1,F,19,16,Study,4,4,,Study/JOL,"Study Phase",16,FREQ,5,5,,"How often are these two words used together?|Type your response on a scale from 0-100 and then press Enter.",4011,,,-1,-1,,,,,5002,-1,-1,1,1
w10090726,j5885tk4rl,Nick_Dissertation_EX2_EP,1,51,2022-04-26T18:30:23+00:00,9.2748050689697,9,Pure_Forward.csv,FREQVersionA.csv,"Freq Pure F A","Freq Pure F A",MOON,SPACE,BUFFER2,Buffer,89,50,Study,4,4,,Study/JOL,BUFFER2,50,FREQ,5,5,,"How often are these two words used together?|Type your response on a scale from 0-100 and then press Enter.",4001,,,-1,-1,,,,100,5002,2019,2605,1,1
w10090726,j5885tk4rl,Nick_Dissertation_EX2_EP,1,52,2022-04-26T18:30:33+00:00,9.3026659488678,9,Pure_Forward.csv,FREQVersionA.csv,"Freq Pure F A","Freq Pure F A",MALT,CHOCOLATE,BUFFER2,Buffer,88,48,Study,4,4,,Study/JOL,BUFFER2,48,FREQ,5,5,,"How often are these two words used together?|Type your response on a scale from 0-100 and then press Enter.",4012,,,-1,-1,,,,5,5005,3291,3292,1,1
w10090726,j5885tk4rl,Nick_Dissertation_EX2_EP,1,53,2022-04-26T18:30:42+00:00,9.2967691421509,9,Pure_Forward.csv,FREQVersionA.csv,"Freq Pure F A","Freq Pure F A",GEESE,GOOSE,BUFFER2,Buffer,86,47,Study,4,4,,Study/JOL,BUFFER2,47,FREQ,5,5,,"How often are these two words used together?|Type your response on a scale from 0-100 and then press Enter.",4002,,,-1,-1,,,,99,5011,3539,3676,1,1
w10090726,j5885tk4rl,Nick_Dissertation_EX2_EP,1,54,2022-04-26T18:30:51+00:00,9.2831859588623,9,Pure_Forward.csv,FREQVersionA.csv,"Freq Pure F A","Freq Pure F A",SHERRIF,POLICE,BUFFER2,Buffer,87,49,Study,4,4,,Study/JOL,BUFFER2,49,FREQ,5,5,,"How often are these two words used together?|Type your response on a scale from 0-100 and then press Enter.",4002,,,-1,-1,,,,100,5002,2509,2997,1,1
w10090726,j5885tk4rl,Nick_Dissertation_EX2_EP,1,55,2022-04-26T18:31:01+00:00,9.2749419212341,9,Pure_Forward.csv,FREQVersionA.csv,"Freq Pure F A","Freq Pure F A",THING,STUFF,BUFFER2,Buffer,90,51,Study,4,4,,Study/JOL,BUFFER2,51,FREQ,5,5,,"How often are these two words used together?|Type your response on a scale from 0-100 and then press Enter.",4003,,,-1,-1,,,,100,5002,1924,2207,1,1
w10090726,j5885tk4rl,Nick_Dissertation_EX2_EP,1,56,2022-04-26T18:31:05+00:00,4.85928606987,9,Pure_Forward.csv,FREQVersionA.csv,"Freq Pure F A","Freq Pure F A",,,,,,0,Instruct,User,-,"You have completed this section. Please press Enter.",Filler_Instruction,Instruct2,,No,,,,,4620,,,-1,-1,,,,,,,,1,
w10090726,j5885tk4rl,Nick_Dissertation_EX2_EP,1,57,2022-04-26T18:33:06+00:00,120.1537759304,9,Pure_Forward.csv,FREQVersionA.csv,"Freq Pure F A","Freq Pure F A",,,,,,0,FreeRecall,120,120,"Please list the 50 US states in alphabetical order. The task will automatically advance to the next screen after two minutes.",,Filler1,,No,,,,,120002,"Alabama Alaska Arkansas",0,55869,71915,0,0,,,,,,1,
w10090726,j5885tk4rl,Nick_Dissertation_EX2_EP,1,58,2022-04-26T18:33:35+00:00,29.02475810051,9,Pure_Forward.csv,FREQVersionA.csv,"Freq Pure F A","Freq Pure F A",,,,,,0,Instruct,-,10,"You will now be presented with the first word from each of the previously studied item pairs. Please type the missing word. If you do not know the word, you may guess or press Enter to skip forward to the next pair.",,Instruct3,,No,,,,,28891,,,-1,-1,,,,,,,,0.957,
w10090726,j5885tk4rl,Nick_Dissertation_EX2_EP,1,59,2022-04-26T18:33:42+00:00,7.2442018985748,9,Pure_Forward.csv,FREQVersionA.csv,"Freq Pure F A","Freq Pure F A",REVENGE,EVEN,Study1,F,72,31,Test,User,-,,Recall,Recall1,,No,,,,,7039,Even,100,2341,5419,1,1,,,,,,1,
w10090726,j5885tk4rl,Nick_Dissertation_EX2_EP,1,60,2022-04-26T18:33:52+00:00,10.235234975815,9,Pure_Forward.csv,FREQVersionA.csv,"Freq Pure F A","Freq Pure F A",THIMBLE,THREAD,Study1,F,71,13,Test,User,-,,Recall,Recall1,,No,,,,,10098,,0,-1,-1,0,0,,,,,,1,
w10090726,j5885tk4rl,Nick_Dissertation_EX2_EP,1,61,2022-04-26T18:33:58+00:00,6.3398380279541,9,Pure_Forward.csv,FREQVersionA.csv,"Freq Pure F A","Freq Pure F A",HERD,COW,Study1,F,22,22,Test,User,-,,Recall,Recall1,,No,,,,,6196,Cow,100,2684,5062,1,1,,,,,,1,
w10090726,j5885tk4rl,Nick_Dissertation_EX2_EP,1,62,2022-04-26T18:34:12+00:00,13.446398019791,9,Pure_Forward.csv,FREQVersionA.csv,"Freq Pure F A","Freq Pure F A",NAP,SLEEP,Study1,F,84,36,Test,User,-,,Recall,Recall1,,No,,,,,13320,Sleep,100,5833,8519,1,1,,,,,,1,
w10090726,j5885tk4rl,Nick_Dissertation_EX2_EP,1,63,2022-04-26T18:34:16+00:00,4.1575410366058,9,Pure_Forward.csv,FREQVersionA.csv,"Freq Pure F A","Freq Pure F A",BRAWL,FIGHT,Study1,F,85,18,Test,User,-,,Recall,Recall1,,No,,,,,3978,Fight,100,2121,2877,1,1,,,,,,1,
w10090726,j5885tk4rl,Nick_Dissertation_EX2_EP,1,64,2022-04-26T18:34:21+00:00,5.0356600284576,9,Pure_Forward.csv,FREQVersionA.csv,"Freq Pure F A","Freq Pure F A",WINDSHIELD,CAR,Study1,F,67,33,Test,User,-,,Recall,Recall1,,No,,,,,4914,Car,100,1996,2266,1,1,,,,,,1,
w10090726,j5885tk4rl,Nick_Dissertation_EX2_EP,1,65,2022-04-26T18:34:25+00:00,4.2133059501648,9,Pure_Forward.csv,FREQVersionA.csv,"Freq Pure F A","Freq Pure F A",EDITOR,NEWS,Study1,F,10,11,Test,User,-,,Recall,Recall1,,No,,,,,4056,News,100,2306,2862,1,1,,,,,,1,
w10090726,j5885tk4rl,Nick_Dissertation_EX2_EP,1,66,2022-04-26T18:34:34+00:00,8.4560980796814,9,Pure_Forward.csv,FREQVersionA.csv,"Freq Pure F A","Freq Pure F A",SWAN,BIRD,Study1,F,14,19,Test,User,-,,Recall,Recall1,,No,,,,,8300,Bird,100,1929,7030,1,1,,,,,,1,
w10090726,j5885tk4rl,Nick_Dissertation_EX2_EP,1,67,2022-04-26T18:34:40+00:00,6.2329888343811,9,Pure_Forward.csv,FREQVersionA.csv,"Freq Pure F A","Freq Pure F A",BRIDGE,WATER,Study1,F,18,9,Test,User,-,,Recall,Recall1,,No,,,,,6104,Water,100,1923,2915,1,1,,,,,,1,
w10090726,j5885tk4rl,Nick_Dissertation_EX2_EP,1,68,2022-04-26T18:34:46+00:00,6.4408850669861,9,Pure_Forward.csv,FREQVersionA.csv,"Freq Pure F A","Freq Pure F A",ROOT,PLANT,Study1,F,13,43,Test,User,-,,Recall,Recall1,,No,,,,,6306,Plant,100,2053,2719,1,1,,,,,,1,
w10090726,j5885tk4rl,Nick_Dissertation_EX2_EP,1,69,2022-04-26T18:34:56+00:00,9.545401096344,9,Pure_Forward.csv,FREQVersionA.csv,"Freq Pure F A","Freq Pure F A",LEAGUE,BASEBALL,Study1,F,81,40,Test,User,-,,Recall,Recall1,,No,,,,,9388,Baseball,100,2685,8019,1,1,,,,,,1,
w10090726,j5885tk4rl,Nick_Dissertation_EX2_EP,1,70,2022-04-26T18:35:03+00:00,6.8631148338318,9,Pure_Forward.csv,FREQVersionA.csv,"Freq Pure F A","Freq Pure F A",AIRCRAFT,PLANE,Study1,F,79,27,Test,User,-,,Recall,Recall1,,No,,,,,6743,Plane,100,2047,3017,1,1,,,,,,1,
w10090726,j5885tk4rl,Nick_Dissertation_EX2_EP,1,71,2022-04-26T18:35:07+00:00,4.5171389579773,9,Pure_Forward.csv,FREQVersionA.csv,"Freq Pure F A","Freq Pure F A",CREDIT,CARD,Study1,F,23,29,Test,User,-,,Recall,Recall1,,No,,,,,4358,Card,100,2785,3187,1,1,,,,,,1,
w10090726,j5885tk4rl,Nick_Dissertation_EX2_EP,1,72,2022-04-26T18:35:14+00:00,6.6421060562134,9,Pure_Forward.csv,FREQVersionA.csv,"Freq Pure F A","Freq Pure F A",BALLOON,POP,Study1,F,73,44,Test,User,-,,Recall,Recall1,,No,,,,,6497,Pop,100,1898,5260,1,1,,,,,,1,
w10090726,j5885tk4rl,Nick_Dissertation_EX2_EP,1,73,2022-04-26T18:35:18+00:00,3.9679191112518,9,Pure_Forward.csv,FREQVersionA.csv,"Freq Pure F A","Freq Pure F A",GEOLOGY,ROCK,Study1,F,19,16,Test,User,-,,Recall,Recall1,,No,,,,,3837,Rock,100,2219,2787,1,1,,,,,,1,
w10090726,j5885tk4rl,Nick_Dissertation_EX2_EP,1,74,2022-04-26T18:35:27+00:00,9.495353937149,9,Pure_Forward.csv,FREQVersionA.csv,"Freq Pure F A","Freq Pure F A",HORNET,STING,Study1,F,11,12,Test,User,-,,Recall,Recall1,,No,,,,,9371,Sting,100,1932,5932,1,1,,,,,,1,
w10090726,j5885tk4rl,Nick_Dissertation_EX2_EP,1,75,2022-04-26T18:35:31+00:00,3.5791358947754,9,Pure_Forward.csv,FREQVersionA.csv,"Freq Pure F A","Freq Pure F A",VILLAIN,BAD,Study1,F,68,7,Test,User,-,,Recall,Recall1,,No,,,,,3445,Bad,100,2189,2424,1,1,,,,,,1,
w10090726,j5885tk4rl,Nick_Dissertation_EX2_EP,1,76,2022-04-26T18:35:34+00:00,3.1731140613556,9,Pure_Forward.csv,FREQVersionA.csv,"Freq Pure F A","Freq Pure F A",DISCUSSION,TALK,Study1,F,21,24,Test,User,-,,Recall,Recall1,,No,,,,,3048,Talk,100,1709,2113,1,1,,,,,,1,
w10090726,j5885tk4rl,Nick_Dissertation_EX2_EP,1,77,2022-04-26T18:35:38+00:00,3.4784860610962,9,Pure_Forward.csv,FREQVersionA.csv,"Freq Pure F A","Freq Pure F A",BITTER,COLD,Study1,F,12,37,Test,User,-,,Recall,Recall1,,No,,,,,3348,"Cold ",100,1655,2278,1,1,,,,,,1,
w10090726,j5885tk4rl,Nick_Dissertation_EX2_EP,1,78,2022-04-26T18:35:41+00:00,3.4432499408722,9,Pure_Forward.csv,FREQVersionA.csv,"Freq Pure F A","Freq Pure F A",FAVORITE,BEST,Study1,F,75,28,Test,User,-,,Recall,Recall1,,No,,,,,3317,Best,100,1924,2277,1,1,,,,,,1,
w10090726,j5885tk4rl,Nick_Dissertation_EX2_EP,1,79,2022-04-26T18:35:46+00:00,5.204430103302,9,Pure_Forward.csv,FREQVersionA.csv,"Freq Pure F A","Freq Pure F A",REVOLUTION,WAR,Study1,F,20,15,Test,User,-,,Recall,Recall1,,No,,,,,5093,War,100,1832,2570,1,1,,,,,,1,
w10090726,j5885tk4rl,Nick_Dissertation_EX2_EP,1,80,2022-04-26T18:35:50+00:00,3.186017036438,9,Pure_Forward.csv,FREQVersionA.csv,"Freq Pure F A","Freq Pure F A",PANTHER,CAT,Study1,F,76,10,Test,User,-,,Recall,Recall1,,No,,,,,3051,Cat,100,1853,2044,1,1,,,,,,1,
w10090726,j5885tk4rl,Nick_Dissertation_EX2_EP,1,81,2022-04-26T18:35:53+00:00,3.2597258090973,9,Pure_Forward.csv,FREQVersionA.csv,"Freq Pure F A","Freq Pure F A",WAY,OUT,Study1,F,16,30,Test,User,-,,Recall,Recall1,,No,,,,,3135,Out,100,1845,2213,1,1,,,,,,1,
w10090726,j5885tk4rl,Nick_Dissertation_EX2_EP,1,82,2022-04-26T18:36:08+00:00,15.061443090439,9,Pure_Forward.csv,FREQVersionA.csv,"Freq Pure F A","Freq Pure F A",DIGESTION,STOMACH,Study1,F,7,45,Test,User,-,,Recall,Recall1,,No,,,,,14919,Stomach,100,1997,8886,1,1,,,,,,1,
w10090726,j5885tk4rl,Nick_Dissertation_EX2_EP,1,83,2022-04-26T18:36:15+00:00,6.6424100399017,9,Pure_Forward.csv,FREQVersionA.csv,"Freq Pure F A","Freq Pure F A",SARDINE,FISH,Study1,F,80,42,Test,User,-,,Recall,Recall1,,No,,,,,6488,Fish,100,1956,5212,1,1,,,,,,1,
w10090726,j5885tk4rl,Nick_Dissertation_EX2_EP,1,84,2022-04-26T18:36:21+00:00,6.0146059989929,9,Pure_Forward.csv,FREQVersionA.csv,"Freq Pure F A","Freq Pure F A",ACTRESS,STAR,Study1,F,70,35,Test,User,-,,Recall,Recall1,,No,,,,,5862,Star,100,4142,4476,1,1,,,,,,1,
w10090726,j5885tk4rl,Nick_Dissertation_EX2_EP,1,85,2022-04-26T18:36:26+00:00,5.6161539554596,9,Pure_Forward.csv,FREQVersionA.csv,"Freq Pure F A","Freq Pure F A",PAW,DOG,Study1,F,15,46,Test,User,-,,Recall,Recall1,,No,,,,,5466,Dog,100,2053,3822,1,1,,,,,,1,
w10090726,j5885tk4rl,Nick_Dissertation_EX2_EP,1,86,2022-04-26T18:36:32+00:00,6.2186880111694,9,Pure_Forward.csv,FREQVersionA.csv,"Freq Pure F A","Freq Pure F A",PENGUIN,BIRD,Study1,F,69,20,Test,User,-,,Recall,Recall1,,No,,,,,6051,Bird,100,1913,4859,1,1,,,,,,1,
w10090726,j5885tk4rl,Nick_Dissertation_EX2_EP,1,87,2022-04-26T18:36:49+00:00,16.913815975189,9,Pure_Forward.csv,FREQVersionA.csv,"Freq Pure F A","Freq Pure F A",COFFIN,DEAD,Study1,F,78,17,Test,User,-,,Recall,Recall1,,No,,,,,16762,Dead,100,8035,8486,1,1,,,,,,1,
w10090726,j5885tk4rl,Nick_Dissertation_EX2_EP,1,88,2022-04-26T18:36:56+00:00,6.9583520889282,9,Pure_Forward.csv,FREQVersionA.csv,"Freq Pure F A","Freq Pure F A",BANKER,MONEY,Study1,F,82,26,Test,User,-,,Recall,Recall1,,No,,,,,6808,Money,100,5074,5721,1,1,,,,,,1,
w10090726,j5885tk4rl,Nick_Dissertation_EX2_EP,1,89,2022-04-26T18:37:01+00:00,4.275955915451,9,Pure_Forward.csv,FREQVersionA.csv,"Freq Pure F A","Freq Pure F A",WAGE,MONEY,Study1,F,8,21,Test,User,-,,Recall,Recall1,,No,,,,,4125,Money,100,2383,3004,1,1,,,,,,1,
w10090726,j5885tk4rl,Nick_Dissertation_EX2_EP,1,90,2022-04-26T18:37:07+00:00,6.9359159469604,9,Pure_Forward.csv,FREQVersionA.csv,"Freq Pure F A","Freq Pure F A",CHISEL,HAMMER,Study1,F,9,32,Test,User,-,,Recall,Recall1,,No,,,,,6786,Hammer,100,2792,5787,1,1,,,,,,1,
w10090726,j5885tk4rl,Nick_Dissertation_EX2_EP,1,91,2022-04-26T18:37:17+00:00,9.1212129592896,9,Pure_Forward.csv,FREQVersionA.csv,"Freq Pure F A","Freq Pure F A",ORCHID,FLOWER,Study1,F,24,14,Test,User,-,,Recall,Recall1,,No,,,,,8975,Plant,18.181818181818,4246,5366,0,0,,,,,,1,
w10090726,j5885tk4rl,Nick_Dissertation_EX2_EP,1,92,2022-04-26T18:37:26+00:00,9.3147180080414,9,Pure_Forward.csv,FREQVersionA.csv,"Freq Pure F A","Freq Pure F A",TUNA,FISH,Study1,F,25,34,Test,User,-,,Recall,Recall1,,No,,,,,9160,Fish,100,1871,8026,1,1,,,,,,1,
w10090726,j5885tk4rl,Nick_Dissertation_EX2_EP,1,93,2022-04-26T18:37:54+00:00,28.136295080185,9,Pure_Forward.csv,FREQVersionA.csv,"Freq Pure F A","Freq Pure F A",BREAKABLE,GLASS,Study1,F,77,25,Test,User,-,,Recall,Recall1,,No,,,,,28001,Rip,0,9937,23776,0,0,,,,,,1,
w10090726,j5885tk4rl,Nick_Dissertation_EX2_EP,1,94,2022-04-26T18:37:58+00:00,3.73801612854,9,Pure_Forward.csv,FREQVersionA.csv,"Freq Pure F A","Freq Pure F A",DELINQUENT,BAD,Study1,F,6,23,Test,User,-,,Recall,Recall1,,No,,,,,3589,Bad,100,2252,2521,1,1,,,,,,1,
w10090726,j5885tk4rl,Nick_Dissertation_EX2_EP,1,95,2022-04-26T18:38:03+00:00,4.7818989753723,9,Pure_Forward.csv,FREQVersionA.csv,"Freq Pure F A","Freq Pure F A",STRAWBERRY,FRUIT,Study1,F,74,38,Test,User,-,,Recall,Recall1,,No,,,,,4641,Fruit,100,2013,2904,1,1,,,,,,1,
w10090726,j5885tk4rl,Nick_Dissertation_EX2_EP,1,96,2022-04-26T18:38:06+00:00,3.6268968582153,9,Pure_Forward.csv,FREQVersionA.csv,"Freq Pure F A","Freq Pure F A",FLIP,TURN,Study1,F,66,8,Test,User,-,,Recall,Recall1,,No,,,,,3497,Turn,100,1872,2341,1,1,,,,,,1,
w10090726,j5885tk4rl,Nick_Dissertation_EX2_EP,1,97,2022-04-26T18:38:16+00:00,9.9601490497589,9,Pure_Forward.csv,FREQVersionA.csv,"Freq Pure F A","Freq Pure F A",TRUTHFUL,HONEST,Study1,F,83,39,Test,User,-,,Recall,Recall1,,No,,,,,9844,Honest,100,5545,6360,1,1,,,,,,1,
w10090726,j5885tk4rl,Nick_Dissertation_EX2_EP,1,98,2022-04-26T18:38:20+00:00,3.7355599403381,9,Pure_Forward.csv,FREQVersionA.csv,"Freq Pure F A","Freq Pure F A",HYGIENE,CLEAN,Study1,F,17,41,Test,User,-,,Recall,Recall1,,No,,,,,3592,Good,0,2133,2653,0,0,,,,,,1,
w10090726,j5885tk4rl,Nick_Dissertation_EX2_EP,1,99,2022-04-26T18:38:34+00:00,14.463824987411,9,Pure_Forward.csv,FREQVersionA.csv,"Freq Pure F A","Freq Pure F A",,,,,,0,Instruct,-,10,"You will now be presented with a new set of word pairs. Please study each pair. Remember that your memory will be tested! When finished, press Enter to move to the next pair.",Initial_Instruct,Instruct4,,No,,,,,14332,,,-1,-1,,,,,,,,1,
w10090726,j5885tk4rl,Nick_Dissertation_EX2_EP,1,100,2022-04-26T18:38:48+00:00,13.775177001953,9,Pure_Forward.csv,FREQVersionA.csv,"Freq Pure F A","Freq Pure F A",,,,,,0,Instruct,,10,"You will again be asked to rate how often the paired items are used together, using a 0 to 100 scale. Remember to use the full range of the scale!",,Instruct10,,No,,,,,13648,,,-1,-1,,,,,,,,1,
w10090726,j5885tk4rl,Nick_Dissertation_EX2_EP,1,101,2022-04-26T18:38:55+00:00,7.2065420150757,9,Pure_Forward.csv,FREQVersionA.csv,"Freq Pure F A","Freq Pure F A",,,,,,0,Instruct,User,-,"Each word will be displayed on the computer screen for 4 seconds. You will then have 4 seconds to make your rating. The screen will automatically move to the next pair when time is up. Press Enter when you are ready to begin.",,Instruct11,,No,,,,,7057,,,-1,-1,,,,,,,,1,
w10090726,j5885tk4rl,Nick_Dissertation_EX2_EP,1,102,2022-04-26T18:39:05+00:00,9.3025851249695,9,Pure_Forward.csv,FREQVersionA.csv,"Freq Pure F A","Freq Pure F A",CARROT,POTATO,BUFFER3,Buffer,91,56,Study,4,4,,Study/JOL,BUFFER3,56,FREQ,5,5,BUFFER3,"How often are these two words used together?|Type your response on a scale from 0-100 and then press Enter.",4002,,,-1,-1,,,,0,5002,2651,2651,1,1
w10090726,j5885tk4rl,Nick_Dissertation_EX2_EP,1,103,2022-04-26T18:39:14+00:00,9.2698910236359,9,Pure_Forward.csv,FREQVersionA.csv,"Freq Pure F A","Freq Pure F A",NOODLE,STRING,BUFFER3,Buffer,92,54,Study,4,4,,Study/JOL,BUFFER3,54,FREQ,5,5,BUFFER3,"How often are these two words used together?|Type your response on a scale from 0-100 and then press Enter.",4001,,,-1,-1,,,,65,5001,2649,4974,1,1
w10090726,j5885tk4rl,Nick_Dissertation_EX2_EP,1,104,2022-04-26T18:39:23+00:00,9.2808799743652,9,Pure_Forward.csv,FREQVersionA.csv,"Freq Pure F A","Freq Pure F A",ICE,FROZEN,BUFFER3,Buffer,94,55,Study,4,4,,Study/JOL,BUFFER3,55,FREQ,5,5,BUFFER3,"How often are these two words used together?|Type your response on a scale from 0-100 and then press Enter.",4000,,,-1,-1,,,,100,5001,3393,3643,1,1
w10090726,j5885tk4rl,Nick_Dissertation_EX2_EP,1,105,2022-04-26T18:39:32+00:00,9.2727439403534,9,Pure_Forward.csv,FREQVersionA.csv,"Freq Pure F A","Freq Pure F A",SHRIMP,FISH,BUFFER3,Buffer,93,52,Study,4,4,,Study/JOL,BUFFER3,52,FREQ,5,5,BUFFER3,"How often are these two words used together?|Type your response on a scale from 0-100 and then press Enter.",4001,,,-1,-1,,,,65,5002,2943,3127,1,1
w10090726,j5885tk4rl,Nick_Dissertation_EX2_EP,1,106,2022-04-26T18:39:42+00:00,9.2801990509033,9,Pure_Forward.csv,FREQVersionA.csv,"Freq Pure F A","Freq Pure F A",CAMP,ADVENTURE,BUFFER3,Buffer,95,53,Study,4,4,,Study/JOL,BUFFER3,53,FREQ,5,5,BUFFER3,"How often are these two words used together?|Type your response on a scale from 0-100 and then press Enter.",4002,,,-1,-1,,,,77,5002,2576,3180,1,1
w10090726,j5885tk4rl,Nick_Dissertation_EX2_EP,1,107,2022-04-26T18:39:51+00:00,9.2761249542236,9,Pure_Forward.csv,FREQVersionA.csv,"Freq Pure F A","Freq Pure F A",DRIVER,CAR,Study2,F,166,76,Study,4,4,,Study/JOL,"Study Phase2",76,FREQ,5,5,"Study Phase2","How often are these two words used together?|Type your response on a scale from 0-100 and then press Enter.",4001,,,-1,-1,,,,77,5001,3979,4180,1,1
w10090726,j5885tk4rl,Nick_Dissertation_EX2_EP,1,108,2022-04-26T18:40:00+00:00,9.2658040523529,9,Pure_Forward.csv,FREQVersionA.csv,"Freq Pure F A","Freq Pure F A",MULE,DONKEY,Study2,F,168,87,Study,4,4,,Study/JOL,"Study Phase2",87,FREQ,5,5,"Study Phase2","How often are these two words used together?|Type your response on a scale from 0-100 and then press Enter.",4000,,,-1,-1,,,,90,5002,3506,3824,1,1
w10090726,j5885tk4rl,Nick_Dissertation_EX2_EP,1,109,2022-04-26T18:40:10+00:00,9.2805969715118,9,Pure_Forward.csv,FREQVersionA.csv,"Freq Pure F A","Freq Pure F A",FAMINE,HUNGER,Study2,F,110,72,Study,4,4,,Study/JOL,"Study Phase2",72,FREQ,5,5,"Study Phase2","How often are these two words used together?|Type your response on a scale from 0-100 and then press Enter.",4000,,,-1,-1,,,,0,5001,3489,3489,1,0.8
w10090726,j5885tk4rl,Nick_Dissertation_EX2_EP,1,110,2022-04-26T18:40:19+00:00,9.5303320884705,9,Pure_Forward.csv,FREQVersionA.csv,"Freq Pure F A","Freq Pure F A",DROWSY,SLEEP,Study2,F,111,89,Study,4,4,,Study/JOL,"Study Phase2",89,FREQ,5,5,"Study Phase2","How often are these two words used together?|Type your response on a scale from 0-100 and then press Enter.",4002,,,-1,-1,,,,,5002,-1,-1,1,1
w10090726,j5885tk4rl,Nick_Dissertation_EX2_EP,1,111,2022-04-26T18:40:28+00:00,9.300696849823,9,Pure_Forward.csv,FREQVersionA.csv,"Freq Pure F A","Freq Pure F A",SEIZE,TAKE,Study2,F,99,81,Study,4,4,,Study/JOL,"Study Phase2",81,FREQ,5,5,"Study Phase2","How often are these two words used together?|Type your response on a scale from 0-100 and then press Enter.",4001,,,-1,-1,,,,100,5002,3045,3329,1,1
w10090726,j5885tk4rl,Nick_Dissertation_EX2_EP,1,112,2022-04-26T18:40:38+00:00,9.2776761054993,9,Pure_Forward.csv,FREQVersionA.csv,"Freq Pure F A","Freq Pure F A",DETECTIVE,MYSTERY,Study2,F,160,84,Study,4,4,,Study/JOL,"Study Phase2",84,FREQ,5,5,"Study Phase2","How often are these two words used together?|Type your response on a scale from 0-100 and then press Enter.",4001,,,-1,-1,,,,,5002,-1,-1,1,1
w10090726,j5885tk4rl,Nick_Dissertation_EX2_EP,1,113,2022-04-26T18:40:47+00:00,9.3567759990692,9,Pure_Forward.csv,FREQVersionA.csv,"Freq Pure F A","Freq Pure F A",ENOUGH,FULL,Study2,F,96,95,Study,4,4,,Study/JOL,"Study Phase2",95,FREQ,5,5,"Study Phase2","How often are these two words used together?|Type your response on a scale from 0-100 and then press Enter.",4003,,,-1,-1,,,,100,5002,2226,3128,1,1
w10090726,j5885tk4rl,Nick_Dissertation_EX2_EP,1,114,2022-04-26T18:40:56+00:00,9.2963199615479,9,Pure_Forward.csv,FREQVersionA.csv,"Freq Pure F A","Freq Pure F A",SHOELACE,TIE,Study2,F,159,77,Study,4,4,,Study/JOL,"Study Phase2",77,FREQ,5,5,"Study Phase2","How often are these two words used together?|Type your response on a scale from 0-100 and then press Enter.",4002,,,-1,-1,,,,,5002,-1,-1,1,1
w10090726,j5885tk4rl,Nick_Dissertation_EX2_EP,1,115,2022-04-26T18:41:06+00:00,9.2901940345764,9,Pure_Forward.csv,FREQVersionA.csv,"Freq Pure F A","Freq Pure F A",ADJOURN,END,Study2,F,161,75,Study,4,4,,Study/JOL,"Study Phase2",75,FREQ,5,5,"Study Phase2","How often are these two words used together?|Type your response on a scale from 0-100 and then press Enter.",4002,,,-1,-1,,,,100,5002,3283,4938,1,1
w10090726,j5885tk4rl,Nick_Dissertation_EX2_EP,1,116,2022-04-26T18:41:15+00:00,9.2641890048981,9,Pure_Forward.csv,FREQVersionA.csv,"Freq Pure F A","Freq Pure F A",AFFECTION,LOVE,Study2,F,175,78,Study,4,4,,Study/JOL,"Study Phase2",78,FREQ,5,5,"Study Phase2","How often are these two words used together?|Type your response on a scale from 0-100 and then press Enter.",4001,,,-1,-1,,,,100,5001,2945,4031,1,1
w10090726,j5885tk4rl,Nick_Dissertation_EX2_EP,1,117,2022-04-26T18:41:24+00:00,9.2664978504181,9,Pure_Forward.csv,FREQVersionA.csv,"Freq Pure F A","Freq Pure F A",SHEARS,SCISSORS,Study2,F,172,88,Study,4,4,,Study/JOL,"Study Phase2",88,FREQ,5,5,"Study Phase2","How often are these two words used together?|Type your response on a scale from 0-100 and then press Enter.",4000,,,-1,-1,,,,,5001,-1,-1,1,1
w10090726,j5885tk4rl,Nick_Dissertation_EX2_EP,1,118,2022-04-26T18:41:33+00:00,9.2833631038666,9,Pure_Forward.csv,FREQVersionA.csv,"Freq Pure F A","Freq Pure F A",EXTENSION,LONG,Study2,F,156,64,Study,4,4,,Study/JOL,"Study Phase2",64,FREQ,5,5,"Study Phase2","How often are these two words used together?|Type your response on a scale from 0-100 and then press Enter.",4003,,,-1,-1,,,,100,5002,3189,3423,1,1
w10090726,j5885tk4rl,Nick_Dissertation_EX2_EP,1,119,2022-04-26T18:41:43+00:00,9.3573648929596,9,Pure_Forward.csv,FREQVersionA.csv,"Freq Pure F A","Freq Pure F A",DOCUMENT,PAPER,Study2,F,169,86,Study,4,4,,Study/JOL,"Study Phase2",86,FREQ,5,5,"Study Phase2","How often are these two words used together?|Type your response on a scale from 0-100 and then press Enter.",4000,,,-1,-1,,,,44,5001,3043,3227,1,1
w10090726,j5885tk4rl,Nick_Dissertation_EX2_EP,1,120,2022-04-26T18:41:52+00:00,9.2872960567474,9,Pure_Forward.csv,FREQVersionA.csv,"Freq Pure F A","Freq Pure F A",LATCH,KEY,Study2,F,106,74,Study,4,4,,Study/JOL,"Study Phase2",74,FREQ,5,5,"Study Phase2","How often are these two words used together?|Type your response on a scale from 0-100 and then press Enter.",4002,,,-1,-1,,,,78,5002,4621,4853,1,1
w10090726,j5885tk4rl,Nick_Dissertation_EX2_EP,1,121,2022-04-26T18:42:01+00:00,9.2721929550171,9,Pure_Forward.csv,FREQVersionA.csv,"Freq Pure F A","Freq Pure F A",DELINQUENT,BAD,Study1,F,6,23,Study,4,4,,Study/JOL,"Study Phase2",23,FREQ,5,5,"Study Phase2","How often are these two words used together?|Type your response on a scale from 0-100 and then press Enter.",4001,,,-1,-1,,,,100,5001,2349,3087,1,1
w10090726,j5885tk4rl,Nick_Dissertation_EX2_EP,1,122,2022-04-26T18:42:11+00:00,9.271849155426,9,Pure_Forward.csv,FREQVersionA.csv,"Freq Pure F A","Freq Pure F A",CHILI,HOT,Study2,F,107,62,Study,4,4,,Study/JOL,"Study Phase2",62,FREQ,5,5,"Study Phase2","How often are these two words used together?|Type your response on a scale from 0-100 and then press Enter.",4001,,,-1,-1,,,,,5001,-1,-1,1,1
w10090726,j5885tk4rl,Nick_Dissertation_EX2_EP,1,123,2022-04-26T18:42:20+00:00,9.2741968631744,9,Pure_Forward.csv,FREQVersionA.csv,"Freq Pure F A","Freq Pure F A",SIP,DRINK,Study2,F,97,60,Study,4,4,,Study/JOL,"Study Phase2",60,FREQ,5,5,"Study Phase2","How often are these two words used together?|Type your response on a scale from 0-100 and then press Enter.",4003,,,-1,-1,,,,,5002,-1,-1,1,1
w10090726,j5885tk4rl,Nick_Dissertation_EX2_EP,1,124,2022-04-26T18:42:29+00:00,9.2922179698944,9,Pure_Forward.csv,FREQVersionA.csv,"Freq Pure F A","Freq Pure F A",FANTASTIC,GREAT,Study2,F,105,68,Study,4,4,,Study/JOL,"Study Phase2",68,FREQ,5,5,"Study Phase2","How often are these two words used together?|Type your response on a scale from 0-100 and then press Enter.",4002,,,-1,-1,,,,66,5003,2085,2266,1,1
w10090726,j5885tk4rl,Nick_Dissertation_EX2_EP,1,125,2022-04-26T18:42:38+00:00,9.2709321975708,9,Pure_Forward.csv,FREQVersionA.csv,"Freq Pure F A","Freq Pure F A",PILOT,PLANE,Study2,F,114,79,Study,4,4,,Study/JOL,"Study Phase2",79,FREQ,5,5,"Study Phase2","How often are these two words used together?|Type your response on a scale from 0-100 and then press Enter.",4002,,,-1,-1,,,,,5001,-1,-1,1,1
w10090726,j5885tk4rl,Nick_Dissertation_EX2_EP,1,126,2022-04-26T18:42:48+00:00,9.2729887962341,9,Pure_Forward.csv,FREQVersionA.csv,"Freq Pure F A","Freq Pure F A",WASP,BUG,Study2,F,102,85,Study,4,4,,Study/JOL,"Study Phase2",85,FREQ,5,5,"Study Phase2","How often are these two words used together?|Type your response on a scale from 0-100 and then press Enter.",4002,,,-1,-1,,,,56,5001,4642,4792,1,1
w10090726,j5885tk4rl,Nick_Dissertation_EX2_EP,1,127,2022-04-26T18:42:57+00:00,9.2668220996857,9,Pure_Forward.csv,FREQVersionA.csv,"Freq Pure F A","Freq Pure F A",INCENSE,SMELL,Study2,F,170,73,Study,4,4,,Study/JOL,"Study Phase2",73,FREQ,5,5,"Study Phase2","How often are these two words used together?|Type your response on a scale from 0-100 and then press Enter.",4002,,,-1,-1,,,,88,5002,3413,3580,1,1
w10090726,j5885tk4rl,Nick_Dissertation_EX2_EP,1,128,2022-04-26T18:43:06+00:00,9.2750079631805,9,Pure_Forward.csv,FREQVersionA.csv,"Freq Pure F A","Freq Pure F A",WORD,SENTENCE,Study2,F,101,69,Study,4,4,,Study/JOL,"Study Phase2",69,FREQ,5,5,"Study Phase2","How often are these two words used together?|Type your response on a scale from 0-100 and then press Enter.",4001,,,-1,-1,,,,100,5002,4095,4312,1,1
w10090726,j5885tk4rl,Nick_Dissertation_EX2_EP,1,129,2022-04-26T18:43:16+00:00,9.29483294487,9,Pure_Forward.csv,FREQVersionA.csv,"Freq Pure F A","Freq Pure F A",DIVISION,MATH,Study2,F,103,66,Study,4,4,,Study/JOL,"Study Phase2",66,FREQ,5,5,"Study Phase2","How often are these two words used together?|Type your response on a scale from 0-100 and then press Enter.",4004,,,-1,-1,,,,,5002,-1,-1,1,1
w10090726,j5885tk4rl,Nick_Dissertation_EX2_EP,1,130,2022-04-26T18:43:25+00:00,9.2984511852264,9,Pure_Forward.csv,FREQVersionA.csv,"Freq Pure F A","Freq Pure F A",SCALP,HEAD,Study2,F,165,63,Study,4,4,,Study/JOL,"Study Phase2",63,FREQ,5,5,"Study Phase2","How often are these two words used together?|Type your response on a scale from 0-100 and then press Enter.",4002,,,-1,-1,,,,100,5002,4208,4545,1,1
w10090726,j5885tk4rl,Nick_Dissertation_EX2_EP,1,131,2022-04-26T18:43:34+00:00,9.2727448940277,9,Pure_Forward.csv,FREQVersionA.csv,"Freq Pure F A","Freq Pure F A",ATTORNEY,LAW,Study2,F,104,65,Study,4,4,,Study/JOL,"Study Phase2",65,FREQ,5,5,"Study Phase2","How often are these two words used together?|Type your response on a scale from 0-100 and then press Enter.",4002,,,-1,-1,,,,,5002,-1,-1,1,1
w10090726,j5885tk4rl,Nick_Dissertation_EX2_EP,1,132,2022-04-26T18:43:43+00:00,9.2751259803772,9,Pure_Forward.csv,FREQVersionA.csv,"Freq Pure F A","Freq Pure F A",DINE,EAT,Study2,F,171,61,Study,4,4,,Study/JOL,"Study Phase2",61,FREQ,5,5,"Study Phase2","How often are these two words used together?|Type your response on a scale from 0-100 and then press Enter.",4001,,,-1,-1,,,,100,5001,2527,4485,1,1
w10090726,j5885tk4rl,Nick_Dissertation_EX2_EP,1,133,2022-04-26T18:43:53+00:00,9.3238270282745,9,Pure_Forward.csv,FREQVersionA.csv,"Freq Pure F A","Freq Pure F A",STENCH,SMELL,Study2,F,112,82,Study,4,4,,Study/JOL,"Study Phase2",82,FREQ,5,5,"Study Phase2","How often are these two words used together?|Type your response on a scale from 0-100 and then press Enter.",4001,,,-1,-1,,,,100,5002,3853,4541,1,1
w10090726,j5885tk4rl,Nick_Dissertation_EX2_EP,1,134,2022-04-26T18:44:02+00:00,9.2971849441528,9,Pure_Forward.csv,FREQVersionA.csv,"Freq Pure F A","Freq Pure F A",FURRY,DOG,Study2,F,162,92,Study,4,4,,Study/JOL,"Study Phase2",92,FREQ,5,5,"Study Phase2","How often are these two words used together?|Type your response on a scale from 0-100 and then press Enter.",4001,,,-1,-1,,,,100,5001,2815,3651,1,1
w10090726,j5885tk4rl,Nick_Dissertation_EX2_EP,1,135,2022-04-26T18:44:11+00:00,9.277153968811,9,Pure_Forward.csv,FREQVersionA.csv,"Freq Pure F A","Freq Pure F A",LITTER,TRASH,Study2,F,163,80,Study,4,4,,Study/JOL,"Study Phase2",80,FREQ,5,5,"Study Phase2","How often are these two words used together?|Type your response on a scale from 0-100 and then press Enter.",4002,,,-1,-1,,,,,5002,-1,-1,1,1
w10090726,j5885tk4rl,Nick_Dissertation_EX2_EP,1,136,2022-04-26T18:44:21+00:00,9.2868909835815,9,Pure_Forward.csv,FREQVersionA.csv,"Freq Pure F A","Freq Pure F A",FEUD,FIGHT,Study2,F,173,59,Study,4,4,,Study/JOL,"Study Phase2",59,FREQ,5,5,"Study Phase2","How often are these two words used together?|Type your response on a scale from 0-100 and then press Enter.",4001,,,-1,-1,,,,,5002,-1,-1,1,1
w10090726,j5885tk4rl,Nick_Dissertation_EX2_EP,1,137,2022-04-26T18:44:30+00:00,9.3055729866028,9,Pure_Forward.csv,FREQVersionA.csv,"Freq Pure F A","Freq Pure F A",ATTIRE,CLOTHES,Study2,F,113,91,Study,4,4,,Study/JOL,"Study Phase2",91,FREQ,5,5,"Study Phase2","How often are these two words used together?|Type your response on a scale from 0-100 and then press Enter.",4001,,,-1,-1,,,,,5001,-1,-1,1,1
w10090726,j5885tk4rl,Nick_Dissertation_EX2_EP,1,138,2022-04-26T18:44:39+00:00,9.2771520614624,9,Pure_Forward.csv,FREQVersionA.csv,"Freq Pure F A","Freq Pure F A",CHERRY,RED,Study2,F,164,96,Study,4,4,,Study/JOL,"Study Phase2",96,FREQ,5,5,"Study Phase2","How often are these two words used together?|Type your response on a scale from 0-100 and then press Enter.",4001,,,-1,-1,,,,,5002,-1,-1,1,1
w10090726,j5885tk4rl,Nick_Dissertation_EX2_EP,1,139,2022-04-26T18:44:48+00:00,9.2930071353912,9,Pure_Forward.csv,FREQVersionA.csv,"Freq Pure F A","Freq Pure F A",BLAZE,FIRE,Study2,F,115,70,Study,4,4,,Study/JOL,"Study Phase2",70,FREQ,5,5,"Study Phase2","How often are these two words used together?|Type your response on a scale from 0-100 and then press Enter.",4002,,,-1,-1,,,,,5003,-1,-1,1,1
w10090726,j5885tk4rl,Nick_Dissertation_EX2_EP,1,140,2022-04-26T18:44:58+00:00,9.2704808712006,9,Pure_Forward.csv,FREQVersionA.csv,"Freq Pure F A","Freq Pure F A",CHOP,CUT,Study2,F,167,90,Study,4,4,,Study/JOL,"Study Phase2",90,FREQ,5,5,"Study Phase2","How often are these two words used together?|Type your response on a scale from 0-100 and then press Enter.",4000,,,-1,-1,,,,,5003,-1,-1,1,1
w10090726,j5885tk4rl,Nick_Dissertation_EX2_EP,1,141,2022-04-26T18:45:07+00:00,9.415253162384,9,Pure_Forward.csv,FREQVersionA.csv,"Freq Pure F A","Freq Pure F A",FEUD,FIGHT,Study2,F,173,59,Study,4,4,,Study/JOL,"Study Phase2",59,FREQ,5,5,"Study Phase2","How often are these two words used together?|Type your response on a scale from 0-100 and then press Enter.",4001,,,-1,-1,,,,49,5002,2347,4071,1,1
w10090726,j5885tk4rl,Nick_Dissertation_EX2_EP,1,142,2022-04-26T18:45:16+00:00,9.2811369895935,9,Pure_Forward.csv,FREQVersionA.csv,"Freq Pure F A","Freq Pure F A",CHORE,WORK,Study2,F,109,94,Study,4,4,,Study/JOL,"Study Phase2",94,FREQ,5,5,"Study Phase2","How often are these two words used together?|Type your response on a scale from 0-100 and then press Enter.",4002,,,-1,-1,,,,89,5001,2386,2637,1,1
w10090726,j5885tk4rl,Nick_Dissertation_EX2_EP,1,143,2022-04-26T18:45:26+00:00,9.2833209037781,9,Pure_Forward.csv,FREQVersionA.csv,"Freq Pure F A","Freq Pure F A",RACKET,BALL,Study2,F,108,57,Study,4,4,,Study/JOL,"Study Phase2",57,FREQ,5,5,"Study Phase2","How often are these two words used together?|Type your response on a scale from 0-100 and then press Enter.",4002,,,-1,-1,,,,,5002,-1,-1,1,1
w10090726,j5885tk4rl,Nick_Dissertation_EX2_EP,1,144,2022-04-26T18:45:35+00:00,9.2803230285645,9,Pure_Forward.csv,FREQVersionA.csv,"Freq Pure F A","Freq Pure F A",CACTUS,PLANT,Study2,F,158,71,Study,4,4,,Study/JOL,"Study Phase2",71,FREQ,5,5,"Study Phase2","How often are these two words used together?|Type your response on a scale from 0-100 and then press Enter.",4001,,,-1,-1,,,,100,5002,3219,3503,1,1
w10090726,j5885tk4rl,Nick_Dissertation_EX2_EP,1,145,2022-04-26T18:45:44+00:00,9.2789859771729,9,Pure_Forward.csv,FREQVersionA.csv,"Freq Pure F A","Freq Pure F A",CLUE,GAME,Study2,F,157,93,Study,4,4,,Study/JOL,"Study Phase2",93,FREQ,5,5,"Study Phase2","How often are these two words used together?|Type your response on a scale from 0-100 and then press Enter.",4001,,,-1,-1,,,,100,5002,2594,3214,1,1
w10090726,j5885tk4rl,Nick_Dissertation_EX2_EP,1,146,2022-04-26T18:45:54+00:00,9.2692220211029,9,Pure_Forward.csv,FREQVersionA.csv,"Freq Pure F A","Freq Pure F A",CAVE,DARK,Study2,F,98,67,Study,4,4,,Study/JOL,"Study Phase2",67,FREQ,5,5,"Study Phase2","How often are these two words used together?|Type your response on a scale from 0-100 and then press Enter.",4002,,,-1,-1,,,,89,5002,3469,3749,1,1
w10090726,j5885tk4rl,Nick_Dissertation_EX2_EP,1,147,2022-04-26T18:46:03+00:00,9.295872926712,9,Pure_Forward.csv,FREQVersionA.csv,"Freq Pure F A","Freq Pure F A",MONTH,YEAR,BUFFER4,Buffer,177,97,Study,4,4,,Study/JOL,BUFFER4,97,FREQ,5,5,BUFFER4,"How often are these two words used together?|Type your response on a scale from 0-100 and then press Enter.",4001,,,-1,-1,,,,100,5002,3419,3719,1,1
w10090726,j5885tk4rl,Nick_Dissertation_EX2_EP,1,148,2022-04-26T18:46:12+00:00,9.2631621360779,9,Pure_Forward.csv,FREQVersionA.csv,"Freq Pure F A","Freq Pure F A",DAYS,WEEKS,BUFFER4,Buffer,176,99,Study,4,4,,Study/JOL,BUFFER4,99,FREQ,5,5,BUFFER4,"How often are these two words used together?|Type your response on a scale from 0-100 and then press Enter.",4003,,,-1,-1,,,,,5002,-1,-1,1,1
w10090726,j5885tk4rl,Nick_Dissertation_EX2_EP,1,149,2022-04-26T18:46:21+00:00,9.2652339935303,9,Pure_Forward.csv,FREQVersionA.csv,"Freq Pure F A","Freq Pure F A",SPRING,MARCH,BUFFER4,Buffer,179,100,Study,4,4,,Study/JOL,BUFFER4,100,FREQ,5,5,BUFFER4,"How often are these two words used together?|Type your response on a scale from 0-100 and then press Enter.",4001,,,-1,-1,,,,99,5002,3646,3913,1,1
w10090726,j5885tk4rl,Nick_Dissertation_EX2_EP,1,150,2022-04-26T18:46:31+00:00,9.3326909542084,9,Pure_Forward.csv,FREQVersionA.csv,"Freq Pure F A","Freq Pure F A",TOOL,SHED,BUFFER4,Buffer,178,98,Study,4,4,,Study/JOL,BUFFER4,98,FREQ,5,5,BUFFER4,"How often are these two words used together?|Type your response on a scale from 0-100 and then press Enter.",4001,,,-1,-1,,,,77,5003,3727,3878,1,1
w10090726,j5885tk4rl,Nick_Dissertation_EX2_EP,1,151,2022-04-26T18:46:40+00:00,9.2903969287872,9,Pure_Forward.csv,FREQVersionA.csv,"Freq Pure F A","Freq Pure F A",OCTOBER,SPOOKY,BUFFER4,Buffer,180,101,Study,4,4,,Study/JOL,BUFFER4,101,FREQ,5,5,BUFFER4,"How often are these two words used together?|Type your response on a scale from 0-100 and then press Enter.",4002,,,-1,-1,,,,56,5002,3066,4455,1,1
w10090726,j5885tk4rl,Nick_Dissertation_EX2_EP,1,152,2022-04-26T18:46:46+00:00,5.5997490882874,9,Pure_Forward.csv,FREQVersionA.csv,"Freq Pure F A","Freq Pure F A",,,,,,0,Instruct,User,-,"You have completed this section. Please press Enter.",Filler_Instruction,Instruct5,,No,,,,,5462,,,-1,-1,,,,,,,,1,
w10090726,j5885tk4rl,Nick_Dissertation_EX2_EP,1,153,2022-04-26T18:48:46+00:00,120.15285086632,9,Pure_Forward.csv,FREQVersionA.csv,"Freq Pure F A","Freq Pure F A",,,,,,0,FreeRecall,120,120,"Please list the 50 US states in reverse alphabetical order (z - a). The task will automatically advance to the next screen after two minutes.",,Filler2,,No,,,,,120001,"Washington DC",0,10866,26043,0,0,,,,,,1,
w10090726,j5885tk4rl,Nick_Dissertation_EX2_EP,1,154,2022-04-26T18:48:57+00:00,11.593427181244,9,Pure_Forward.csv,FREQVersionA.csv,"Freq Pure F A","Freq Pure F A",,,,,,0,Instruct,-,10,"You will now be presented with the first word from each of the previously studied item pairs. Please type the missing word. If you do not know the word, you may guess or press Enter to skip forward to the next pair.",,Instruct6,,No,,,,,11454,,,-1,-1,,,,,,,,1,
w10090726,j5885tk4rl,Nick_Dissertation_EX2_EP,1,155,2022-04-26T18:49:06+00:00,8.4593319892883,9,Pure_Forward.csv,FREQVersionA.csv,"Freq Pure F A","Freq Pure F A",FEUD,FIGHT,Study2,F,173,59,Test,User,-,,Recall,Recall2,,No,,,,,8323,Fight,100,2807,5901,1,1,,,,,,1,
w10090726,j5885tk4rl,Nick_Dissertation_EX2_EP,1,156,2022-04-26T18:49:10+00:00,4.0129218101501,9,Pure_Forward.csv,FREQVersionA.csv,"Freq Pure F A","Freq Pure F A",FURRY,DOG,Study2,F,162,92,Test,User,-,,Recall,Recall2,,No,,,,,3871,Dog,100,2448,2750,1,1,,,,,,1,
w10090726,j5885tk4rl,Nick_Dissertation_EX2_EP,1,157,2022-04-26T18:49:14+00:00,4.2006371021271,9,Pure_Forward.csv,FREQVersionA.csv,"Freq Pure F A","Freq Pure F A",DOCUMENT,PAPER,Study2,F,169,86,Test,User,-,,Recall,Recall2,,No,,,,,4041,Paper,100,2247,3171,1,1,,,,,,1,
w10090726,j5885tk4rl,Nick_Dissertation_EX2_EP,1,158,2022-04-26T18:49:18+00:00,3.9384009838104,9,Pure_Forward.csv,FREQVersionA.csv,"Freq Pure F A","Freq Pure F A",FEUD,FIGHT,Study2,F,173,59,Test,User,-,,Recall,Recall2,,No,,,,,3813,Fight,100,1939,2711,1,1,,,,,,1,
w10090726,j5885tk4rl,Nick_Dissertation_EX2_EP,1,159,2022-04-26T18:49:22+00:00,3.5787589550018,9,Pure_Forward.csv,FREQVersionA.csv,"Freq Pure F A","Freq Pure F A",CACTUS,PLANT,Study2,F,158,71,Test,User,-,,Recall,Recall2,,No,,,,,3454,Plant,100,1764,2437,1,1,,,,,,1,
w10090726,j5885tk4rl,Nick_Dissertation_EX2_EP,1,160,2022-04-26T18:49:25+00:00,3.7442140579224,9,Pure_Forward.csv,FREQVersionA.csv,"Freq Pure F A","Freq Pure F A",AFFECTION,LOVE,Study2,F,175,78,Test,User,-,,Recall,Recall2,,No,,,,,3617,"Love ",100,1977,2681,1,1,,,,,,1,
w10090726,j5885tk4rl,Nick_Dissertation_EX2_EP,1,161,2022-04-26T18:49:31+00:00,5.4328238964081,9,Pure_Forward.csv,FREQVersionA.csv,"Freq Pure F A","Freq Pure F A",DRIVER,CAR,Study2,F,166,76,Test,User,-,,Recall,Recall2,,No,,,,,5291,Car,100,2548,2935,1,1,,,,,,1,
w10090726,j5885tk4rl,Nick_Dissertation_EX2_EP,1,162,2022-04-26T18:49:36+00:00,4.8448400497437,9,Pure_Forward.csv,FREQVersionA.csv,"Freq Pure F A","Freq Pure F A",SIP,DRINK,Study2,F,97,60,Test,User,-,,Recall,Recall2,,No,,,,,4686,Drink,100,3096,3703,1,1,,,,,,1,
w10090726,j5885tk4rl,Nick_Dissertation_EX2_EP,1,163,2022-04-26T18:49:43+00:00,7.0637559890747,9,Pure_Forward.csv,FREQVersionA.csv,"Freq Pure F A","Freq Pure F A",LATCH,KEY,Study2,F,106,74,Test,User,-,,Recall,Recall2,,No,,,,,6919,Door,0,5476,5892,0,0,,,,,,1,
w10090726,j5885tk4rl,Nick_Dissertation_EX2_EP,1,164,2022-04-26T18:49:47+00:00,4.1559240818024,9,Pure_Forward.csv,FREQVersionA.csv,"Freq Pure F A","Freq Pure F A",MULE,DONKEY,Study2,F,168,87,Test,User,-,,Recall,Recall2,,No,,,,,4010,Donkey,100,1990,2948,1,1,,,,,,1,
w10090726,j5885tk4rl,Nick_Dissertation_EX2_EP,1,165,2022-04-26T18:49:51+00:00,4.7059309482574,9,Pure_Forward.csv,FREQVersionA.csv,"Freq Pure F A","Freq Pure F A",PILOT,PLANE,Study2,F,114,79,Test,User,-,,Recall,Recall2,,No,,,,,4583,"Plane ",100,1806,2507,1,1,,,,,,1,
w10090726,j5885tk4rl,Nick_Dissertation_EX2_EP,1,166,2022-04-26T18:49:57+00:00,5.9001710414886,9,Pure_Forward.csv,FREQVersionA.csv,"Freq Pure F A","Freq Pure F A",INCENSE,SMELL,Study2,F,170,73,Test,User,-,,Recall,Recall2,,No,,,,,5733,Smell,100,2373,2943,1,1,,,,,,1,
w10090726,j5885tk4rl,Nick_Dissertation_EX2_EP,1,167,2022-04-26T18:50:06+00:00,8.6755990982056,9,Pure_Forward.csv,FREQVersionA.csv,"Freq Pure F A","Freq Pure F A",SHEARS,SCISSORS,Study2,F,172,88,Test,User,-,,Recall,Recall2,,No,,,,,8519,"Scissors ",100,1882,5999,1,1,,,,,,1,
w10090726,j5885tk4rl,Nick_Dissertation_EX2_EP,1,168,2022-04-26T18:50:13+00:00,6.6772789955139,9,Pure_Forward.csv,FREQVersionA.csv,"Freq Pure F A","Freq Pure F A",DINE,EAT,Study2,F,171,61,Test,User,-,,Recall,Recall2,,No,,,,,6520,Eat,100,4393,5531,1,1,,,,,,1,
w10090726,j5885tk4rl,Nick_Dissertation_EX2_EP,1,169,2022-04-26T18:50:21+00:00,7.9068949222565,9,Pure_Forward.csv,FREQVersionA.csv,"Freq Pure F A","Freq Pure F A",CLUE,GAME,Study2,F,157,93,Test,User,-,,Recall,Recall2,,No,,,,,7759,Game,100,6341,6708,1,1,,,,,,1,
w10090726,j5885tk4rl,Nick_Dissertation_EX2_EP,1,170,2022-04-26T18:50:29+00:00,8.2165460586548,9,Pure_Forward.csv,FREQVersionA.csv,"Freq Pure F A","Freq Pure F A",FANTASTIC,GREAT,Study2,F,105,68,Test,User,-,,Recall,Recall2,,No,,,,,8050,Best,44.444444444444,6880,7191,0,0,,,,,,1,
w10090726,j5885tk4rl,Nick_Dissertation_EX2_EP,1,171,2022-04-26T18:50:32+00:00,3.327910900116,9,Pure_Forward.csv,FREQVersionA.csv,"Freq Pure F A","Freq Pure F A",WASP,BUG,Study2,F,102,85,Test,User,-,,Recall,Recall2,,No,,,,,3188,Bug,100,1913,2300,1,1,,,,,,1,
w10090726,j5885tk4rl,Nick_Dissertation_EX2_EP,1,172,2022-04-26T18:50:37+00:00,4.360946893692,9,Pure_Forward.csv,FREQVersionA.csv,"Freq Pure F A","Freq Pure F A",CAVE,DARK,Study2,F,98,67,Test,User,-,,Recall,Recall2,,No,,,,,4216,Dark,100,2642,3096,1,1,,,,,,1,
w10090726,j5885tk4rl,Nick_Dissertation_EX2_EP,1,173,2022-04-26T18:50:42+00:00,5.1929001808167,9,Pure_Forward.csv,FREQVersionA.csv,"Freq Pure F A","Freq Pure F A",BLAZE,FIRE,Study2,F,115,70,Test,User,-,,Recall,Recall2,,No,,,,,5046,"Fire ",100,2402,4145,1,1,,,,,,1,
w10090726,j5885tk4rl,Nick_Dissertation_EX2_EP,1,174,2022-04-26T18:50:45+00:00,3.1879179477692,9,Pure_Forward.csv,FREQVersionA.csv,"Freq Pure F A","Freq Pure F A",DELINQUENT,BAD,Study1,F,6,23,Test,User,-,,Recall,Recall2,,No,,,,,3046,Bad,100,1833,2136,1,1,,,,,,1,
w10090726,j5885tk4rl,Nick_Dissertation_EX2_EP,1,175,2022-04-26T18:50:58+00:00,13.275744915009,9,Pure_Forward.csv,FREQVersionA.csv,"Freq Pure F A","Freq Pure F A",DROWSY,SLEEP,Study2,F,111,89,Test,User,-,,Recall,Recall2,,No,,,,,13149,Sleepy,90.909090909091,1847,5346,0,1,,,,,,1,
w10090726,j5885tk4rl,Nick_Dissertation_EX2_EP,1,176,2022-04-26T18:51:02+00:00,3.4580161571503,9,Pure_Forward.csv,FREQVersionA.csv,"Freq Pure F A","Freq Pure F A",ATTORNEY,LAW,Study2,F,104,65,Test,User,-,,Recall,Recall2,,No,,,,,3320,Law,100,1966,2266,1,1,,,,,,1,
w10090726,j5885tk4rl,Nick_Dissertation_EX2_EP,1,177,2022-04-26T18:51:11+00:00,8.9201548099518,9,Pure_Forward.csv,FREQVersionA.csv,"Freq Pure F A","Freq Pure F A",EXTENSION,LONG,Study2,F,156,64,Test,User,-,,Recall,Recall2,,No,,,,,8758,Long,100,3207,3827,1,1,,,,,,1,
w10090726,j5885tk4rl,Nick_Dissertation_EX2_EP,1,178,2022-04-26T18:51:27+00:00,16.60799407959,9,Pure_Forward.csv,FREQVersionA.csv,"Freq Pure F A","Freq Pure F A",CHERRY,RED,Study2,F,164,96,Test,User,-,,Recall,Recall2,,No,,,,,16456,Tree,57.142857142857,14337,14922,0,0,,,,,,1,
w10090726,j5885tk4rl,Nick_Dissertation_EX2_EP,1,179,2022-04-26T18:51:42+00:00,14.390038967133,9,Pure_Forward.csv,FREQVersionA.csv,"Freq Pure F A","Freq Pure F A",CHILI,HOT,Study2,F,107,62,Test,User,-,,Recall,Recall2,,No,,,,,14240,"Hot ",100,9764,10229,1,1,,,,,,1,
w10090726,j5885tk4rl,Nick_Dissertation_EX2_EP,1,180,2022-04-26T18:51:45+00:00,3.7905261516571,9,Pure_Forward.csv,FREQVersionA.csv,"Freq Pure F A","Freq Pure F A",SCALP,HEAD,Study2,F,165,63,Test,User,-,,Recall,Recall2,,No,,,,,3660,Blad,50,1954,2726,0,0,,,,,,1,
w10090726,j5885tk4rl,Nick_Dissertation_EX2_EP,1,181,2022-04-26T18:51:54+00:00,8.2048418521881,9,Pure_Forward.csv,FREQVersionA.csv,"Freq Pure F A","Freq Pure F A",CHORE,WORK,Study2,F,109,94,Test,User,-,,Recall,Recall2,,No,,,,,8014,Work,100,6309,6758,1,1,,,,,,1,
w10090726,j5885tk4rl,Nick_Dissertation_EX2_EP,1,182,2022-04-26T18:51:57+00:00,3.3482921123505,9,Pure_Forward.csv,FREQVersionA.csv,"Freq Pure F A","Freq Pure F A",ADJOURN,END,Study2,F,161,75,Test,User,-,,Recall,Recall2,,No,,,,,3209,End,100,2039,2259,1,1,,,,,,1,
w10090726,j5885tk4rl,Nick_Dissertation_EX2_EP,1,183,2022-04-26T18:52:03+00:00,6.3281738758087,9,Pure_Forward.csv,FREQVersionA.csv,"Freq Pure F A","Freq Pure F A",DIVISION,MATH,Study2,F,103,66,Test,User,-,,Recall,Recall2,,No,,,,,6170,Math,100,1853,3747,1,1,,,,,,1,
w10090726,j5885tk4rl,Nick_Dissertation_EX2_EP,1,184,2022-04-26T18:52:10+00:00,6.7407021522522,9,Pure_Forward.csv,FREQVersionA.csv,"Freq Pure F A","Freq Pure F A",SEIZE,TAKE,Study2,F,99,81,Test,User,-,,Recall,Recall2,,No,,,,,6578,Take,100,1941,5221,1,1,,,,,,1,
w10090726,j5885tk4rl,Nick_Dissertation_EX2_EP,1,185,2022-04-26T18:52:29+00:00,19.131536960602,9,Pure_Forward.csv,FREQVersionA.csv,"Freq Pure F A","Freq Pure F A",FAMINE,HUNGER,Study2,F,110,72,Test,User,-,,Recall,Recall2,,No,,,,,18964,Eat,22.222222222222,15006,18044,0,0,,,,,,1,
w10090726,j5885tk4rl,Nick_Dissertation_EX2_EP,1,186,2022-04-26T18:52:32+00:00,3.3198959827423,9,Pure_Forward.csv,FREQVersionA.csv,"Freq Pure F A","Freq Pure F A",RACKET,BALL,Study2,F,108,57,Test,User,-,,Recall,Recall2,,No,,,,,3190,Ball,100,1917,2370,1,1,,,,,,1,
w10090726,j5885tk4rl,Nick_Dissertation_EX2_EP,1,187,2022-04-26T18:52:37+00:00,4.4276020526886,9,Pure_Forward.csv,FREQVersionA.csv,"Freq Pure F A","Freq Pure F A",STENCH,SMELL,Study2,F,112,82,Test,User,-,,Recall,Recall2,,No,,,,,4289,Smell,100,2130,3356,1,1,,,,,,1,
w10090726,j5885tk4rl,Nick_Dissertation_EX2_EP,1,188,2022-04-26T18:52:42+00:00,5.1663198471069,9,Pure_Forward.csv,FREQVersionA.csv,"Freq Pure F A","Freq Pure F A",CHOP,CUT,Study2,F,167,90,Test,User,-,,Recall,Recall2,,No,,,,,5014,Cut,100,3651,3986,1,1,,,,,,1,
w10090726,j5885tk4rl,Nick_Dissertation_EX2_EP,1,189,2022-04-26T18:52:53+00:00,11.24485206604,9,Pure_Forward.csv,FREQVersionA.csv,"Freq Pure F A","Freq Pure F A",ATTIRE,CLOTHES,Study2,F,113,91,Test,User,-,,Recall,Recall2,,No,,,,,11092,Dress,33.333333333333,2144,10138,0,0,,,,,,1,
w10090726,j5885tk4rl,Nick_Dissertation_EX2_EP,1,190,2022-04-26T18:52:57+00:00,3.3518528938293,9,Pure_Forward.csv,FREQVersionA.csv,"Freq Pure F A","Freq Pure F A",SHOELACE,TIE,Study2,F,159,77,Test,User,-,,Recall,Recall2,,No,,,,,3223,Tie,100,2017,2267,1,1,,,,,,1,
w10090726,j5885tk4rl,Nick_Dissertation_EX2_EP,1,191,2022-04-26T18:53:01+00:00,4.8294730186462,9,Pure_Forward.csv,FREQVersionA.csv,"Freq Pure F A","Freq Pure F A",DETECTIVE,MYSTERY,Study2,F,160,84,Test,User,-,,Recall,Recall2,,No,,,,,4661,"Mystery ",100,1916,3692,1,1,,,,,,1,
w10090726,j5885tk4rl,Nick_Dissertation_EX2_EP,1,192,2022-04-26T18:53:07+00:00,5.7545990943909,9,Pure_Forward.csv,FREQVersionA.csv,"Freq Pure F A","Freq Pure F A",LITTER,TRASH,Study2,F,163,80,Test,User,-,,Recall,Recall2,,No,,,,,5588,"Trash ",100,2921,4359,1,1,,,,,,1,
w10090726,j5885tk4rl,Nick_Dissertation_EX2_EP,1,193,2022-04-26T18:53:11+00:00,3.311224937439,9,Pure_Forward.csv,FREQVersionA.csv,"Freq Pure F A","Freq Pure F A",ENOUGH,FULL,Study2,F,96,95,Test,User,-,,Recall,Recall2,,No,,,,,3190,Full,100,1893,2347,1,1,,,,,,1,
w10090726,j5885tk4rl,Nick_Dissertation_EX2_EP,1,194,2022-04-26T18:53:15+00:00,4.559091091156,9,Pure_Forward.csv,FREQVersionA.csv,"Freq Pure F A","Freq Pure F A",WORD,SENTENCE,Study2,F,101,69,Test,User,-,,Recall,Recall2,,No,,,,,4403,"Sentence ",100,2128,3388,1,1,,,,,,1,
w10090726,j5885tk4rl,Nick_Dissertation_EX2_EP,1,195,2022-04-26T18:53:19+00:00,4.2414698600769,9,Pure_Forward.csv,FREQVersionA.csv,"Freq Pure F A","Freq Pure F A",,,,,,0,Instruct,User,-,"You have completed this section. Please press Enter.",,Instruct7,,No,,,,,4118,,,-1,-1,,,,,,,,1,
w10090726,j5885tk4rl,Nick_Dissertation_EX2_EP,1,196,2022-04-26T18:53:26+00:00,6.8062751293182,9,Pure_Forward.csv,FREQVersionA.csv,"Freq Pure F A","Freq Pure F A",,,,,,0,Instruct,User,-,"The following screen will ask you a few questions abour your experience today. You must complete these questions to receive credit.",,Instruct8,,No,,,,,6646,,,-1,-1,,,,,,,,1,
