Username,ID,ExperimentName,Session,Trial,Date,TimeDif,"Condition Number","Stimuli File","Order File","Condition Description","Condition Notes",Stimuli*Cue,Stimuli*Answer,Stimuli*Shuffle,"Stimuli*Stimuli Notes",Stimuli*Value,Procedure*Item,"Procedure*Trial Type","Procedure*Max Time","Procedure*Min Time",Procedure*Text,"Procedure*Procedure Notes",Procedure*Shuffle,"Procedure*Post 1 Item","Procedure*Post 1 Trial Type","Procedure*Post 1 Max Time","Procedure*Post 1 Min Time",Procedure*,"Procedure*Post 1 Text",Response*RT,Response*Response,Response*Accuracy,Response*RTfirst,Response*RTlast,Response*strictAcc,Response*lenientAcc,Response*focus,Response*post1_JOL,Response*post1_RT,Response*post1_RTfirst,Response*post1_RTlast,Response*Focus,Response*post1_Focus
M20300117,bk7082kymt,Nick_Dissertation_EX2_EP_MSU_TEXAS,1,1,2022-11-08T23:56:19+00:00,6.6264388561249,15,Pure_Forward.csv,JOLVersionA.csv,"JOL Pure F A","JOL Pure F A",,,,,,0,Instruct,-,5,"In this section, you will be presented with a series of word pairs.",Initial_Instruct,Instruct1,,No,,,,,5901,,,-1,-1,,,,,,,,1
M20300117,bk7082kymt,Nick_Dissertation_EX2_EP_MSU_TEXAS,1,2,2022-11-08T23:56:34+00:00,14.7008061409,15,Pure_Forward.csv,JOLVersionA.csv,"JOL Pure F A","JOL Pure F A",,,,,,0,Instruct,-,5,"As you study, you will be asked to rate your ability to remember the second item in the pair if you were only shown the first at test, using a 0-100 scale.",,Instruct13,,No,,,,,14287,,,-1,-1,,,,,,,,1
M20300117,bk7082kymt,Nick_Dissertation_EX2_EP_MSU_TEXAS,1,3,2022-11-08T23:56:45+00:00,11.71497297287,15,Pure_Forward.csv,JOLVersionA.csv,"JOL Pure F A","JOL Pure F A",,,,,,0,Instruct,-,10,"For example, if you are given the pair CAT - DOG, a rating of 0 indicates that you would not remember DOG at test, while a rating of 100 indicates full certainty that you would remember the word DOG at test.",,Instruct14,,No,,,,,11267,,,-1,-1,,,,,,,,1
M20300117,bk7082kymt,Nick_Dissertation_EX2_EP_MSU_TEXAS,1,4,2022-11-08T23:57:03+00:00,17.405819892883,15,Pure_Forward.csv,JOLVersionA.csv,"JOL Pure F A","JOL Pure F A",,,,,,0,Instruct,-,15,"When making your ratings, it is criticial that you use the full range of the scale. You will be disqualified for only giving ratings of 0 or 100! Each word will be displayed on the computer screen for 4 seconds. You will then have 4 seconds to make your rating. The screen will automatically move to the next pair when time is up.",,Instruct15,,No,,,,,16893,,,-1,-1,,,,,,,,1
M20300117,bk7082kymt,Nick_Dissertation_EX2_EP_MSU_TEXAS,1,5,2022-11-08T23:57:06+00:00,2.8723521232605,15,Pure_Forward.csv,JOLVersionA.csv,"JOL Pure F A","JOL Pure F A",,,,,,0,Instruct,User,-,"You will now begin the study. Press Enter when you are ready to begin.",,Instruct16,,No,,,,,2492,,,-1,-1,,,,,,,,1
M20300117,bk7082kymt,Nick_Dissertation_EX2_EP_MSU_TEXAS,1,6,2022-11-08T23:57:16+00:00,10.461122989655,15,Pure_Forward.csv,JOLVersionA.csv,"JOL Pure F A","JOL Pure F A",SCARE,HIDE,BUFFER1,Buffer,4,5,Study,4,4,,Study/JOL,BUFFER,5,JOL,5,5,,"How likely are you to correctly recall the second item in the pair?|Type your response on a scale from 0-100 and then press Enter.",4002,,,-1,-1,,,,,5009,-1,-1,1,1
M20300117,bk7082kymt,Nick_Dissertation_EX2_EP_MSU_TEXAS,1,7,2022-11-08T23:57:26+00:00,9.82608294487,15,Pure_Forward.csv,JOLVersionA.csv,"JOL Pure F A","JOL Pure F A",SPACE,JAM,BUFFER1,Buffer,5,3,Study,4,4,,Study/JOL,BUFFER,3,JOL,5,5,,"How likely are you to correctly recall the second item in the pair?|Type your response on a scale from 0-100 and then press Enter.",4002,,,112,112,,,,40,5009,1238,1360,1,1
M20300117,bk7082kymt,Nick_Dissertation_EX2_EP_MSU_TEXAS,1,8,2022-11-08T23:57:36+00:00,10.467378139496,15,Pure_Forward.csv,JOLVersionA.csv,"JOL Pure F A","JOL Pure F A",BASEBALL,CATCHER,BUFFER1,Buffer,2,6,Study,4,4,,Study/JOL,BUFFER,6,JOL,5,5,,"How likely are you to correctly recall the second item in the pair?|Type your response on a scale from 0-100 and then press Enter.",4000,,,-1,-1,,,,22,5010,1077,1247,1,1
M20300117,bk7082kymt,Nick_Dissertation_EX2_EP_MSU_TEXAS,1,9,2022-11-08T23:57:47+00:00,11.208553791046,15,Pure_Forward.csv,JOLVersionA.csv,"JOL Pure F A","JOL Pure F A",TREES,GREEN,BUFFER1,Buffer,1,2,Study,4,4,,Study/JOL,BUFFER,2,JOL,5,5,,"How likely are you to correctly recall the second item in the pair?|Type your response on a scale from 0-100 and then press Enter.",4002,,,-1,-1,,,,50,5010,1248,1470,1,1
M20300117,bk7082kymt,Nick_Dissertation_EX2_EP_MSU_TEXAS,1,10,2022-11-08T23:57:58+00:00,10.99779009819,15,Pure_Forward.csv,JOLVersionA.csv,"JOL Pure F A","JOL Pure F A",PEANUT,BUTTER,BUFFER1,Buffer,3,4,Study,4,4,,Study/JOL,BUFFER,4,JOL,5,5,,"How likely are you to correctly recall the second item in the pair?|Type your response on a scale from 0-100 and then press Enter.",4002,,,-1,-1,,,,100,5011,468,978,1,1
M20300117,bk7082kymt,Nick_Dissertation_EX2_EP_MSU_TEXAS,1,11,2022-11-08T23:58:10+00:00,11.047892093658,15,Pure_Forward.csv,JOLVersionA.csv,"JOL Pure F A","JOL Pure F A",BRIDGE,WATER,Study1,F,18,35,Study,4,4,,Study/JOL,"Study Phase",35,JOL,5,5,,"How likely are you to correctly recall the second item in the pair?|Type your response on a scale from 0-100 and then press Enter.",4002,,,-1,-1,,,,10,5010,819,1500,1,1
M20300117,bk7082kymt,Nick_Dissertation_EX2_EP_MSU_TEXAS,1,12,2022-11-08T23:58:23+00:00,13.166374921799,15,Pure_Forward.csv,JOLVersionA.csv,"JOL Pure F A","JOL Pure F A",BANKER,MONEY,Study1,F,82,45,Study,4,4,,Study/JOL,"Study Phase",45,JOL,5,5,,"How likely are you to correctly recall the second item in the pair?|Type your response on a scale from 0-100 and then press Enter.",4002,,,-1,-1,,,,70,5015,1430,1597,1,1
M20300117,bk7082kymt,Nick_Dissertation_EX2_EP_MSU_TEXAS,1,13,2022-11-08T23:58:33+00:00,10.030622959137,15,Pure_Forward.csv,JOLVersionA.csv,"JOL Pure F A","JOL Pure F A",ACTRESS,STAR,Study1,F,70,42,Study,4,4,,Study/JOL,"Study Phase",42,JOL,5,5,,"How likely are you to correctly recall the second item in the pair?|Type your response on a scale from 0-100 and then press Enter.",4002,,,-1,-1,,,,60,5010,2105,2229,1,1
M20300117,bk7082kymt,Nick_Dissertation_EX2_EP_MSU_TEXAS,1,14,2022-11-08T23:58:44+00:00,11.754577159882,15,Pure_Forward.csv,JOLVersionA.csv,"JOL Pure F A","JOL Pure F A",FAVORITE,BEST,Study1,F,75,15,Study,4,4,,Study/JOL,"Study Phase",15,JOL,5,5,,"How likely are you to correctly recall the second item in the pair?|Type your response on a scale from 0-100 and then press Enter.",4007,,,-1,-1,,,,10,5009,438,614,1,1
M20300117,bk7082kymt,Nick_Dissertation_EX2_EP_MSU_TEXAS,1,15,2022-11-08T23:58:55+00:00,10.286950826645,15,Pure_Forward.csv,JOLVersionA.csv,"JOL Pure F A","JOL Pure F A",FLIP,TURN,Study1,F,66,19,Study,4,4,,Study/JOL,"Study Phase",19,JOL,5,5,,"How likely are you to correctly recall the second item in the pair?|Type your response on a scale from 0-100 and then press Enter.",4002,,,-1,-1,,,,12,5008,1040,1225,1,1
M20300117,bk7082kymt,Nick_Dissertation_EX2_EP_MSU_TEXAS,1,16,2022-11-08T23:59:05+00:00,10.47253203392,15,Pure_Forward.csv,JOLVersionA.csv,"JOL Pure F A","JOL Pure F A",EDITOR,NEWS,Study1,F,10,39,Study,4,4,,Study/JOL,"Study Phase",39,JOL,5,5,,"How likely are you to correctly recall the second item in the pair?|Type your response on a scale from 0-100 and then press Enter.",4002,,,-1,-1,,,,25,5010,435,607,1,1
M20300117,bk7082kymt,Nick_Dissertation_EX2_EP_MSU_TEXAS,1,17,2022-11-08T23:59:15+00:00,9.7507860660553,15,Pure_Forward.csv,JOLVersionA.csv,"JOL Pure F A","JOL Pure F A",WINDSHIELD,CAR,Study1,F,67,17,Study,4,4,,Study/JOL,"Study Phase",17,JOL,5,5,,"How likely are you to correctly recall the second item in the pair?|Type your response on a scale from 0-100 and then press Enter.",4002,,,-1,-1,,,,100,5010,633,954,1,1
M20300117,bk7082kymt,Nick_Dissertation_EX2_EP_MSU_TEXAS,1,18,2022-11-08T23:59:25+00:00,9.9137799739838,15,Pure_Forward.csv,JOLVersionA.csv,"JOL Pure F A","JOL Pure F A",AIRCRAFT,PLANE,Study1,F,79,23,Study,4,4,,Study/JOL,"Study Phase",23,JOL,5,5,,"How likely are you to correctly recall the second item in the pair?|Type your response on a scale from 0-100 and then press Enter.",4002,,,-1,-1,,,,15,5009,413,531,1,1
M20300117,bk7082kymt,Nick_Dissertation_EX2_EP_MSU_TEXAS,1,19,2022-11-08T23:59:37+00:00,11.63272690773,15,Pure_Forward.csv,JOLVersionA.csv,"JOL Pure F A","JOL Pure F A",REVENGE,EVEN,Study1,F,72,33,Study,4,4,,Study/JOL,"Study Phase",33,JOL,5,5,,"How likely are you to correctly recall the second item in the pair?|Type your response on a scale from 0-100 and then press Enter.",4003,,,-1,-1,,,,89,5010,625,790,1,1
M20300117,bk7082kymt,Nick_Dissertation_EX2_EP_MSU_TEXAS,1,20,2022-11-08T23:59:47+00:00,10.049797058105,15,Pure_Forward.csv,JOLVersionA.csv,"JOL Pure F A","JOL Pure F A",BREAKABLE,GLASS,Study1,F,77,10,Study,4,4,,Study/JOL,"Study Phase",10,JOL,5,5,,"How likely are you to correctly recall the second item in the pair?|Type your response on a scale from 0-100 and then press Enter.",4002,,,-1,-1,,,,20,5010,339,462,1,1
M20300117,bk7082kymt,Nick_Dissertation_EX2_EP_MSU_TEXAS,1,21,2022-11-08T23:59:57+00:00,10.742779016495,15,Pure_Forward.csv,JOLVersionA.csv,"JOL Pure F A","JOL Pure F A",WAGE,MONEY,Study1,F,8,29,Study,4,4,,Study/JOL,"Study Phase",29,JOL,5,5,,"How likely are you to correctly recall the second item in the pair?|Type your response on a scale from 0-100 and then press Enter.",4001,,,-1,-1,,,,90,5009,1773,2146,1,1
M20300117,bk7082kymt,Nick_Dissertation_EX2_EP_MSU_TEXAS,1,22,2022-11-09T00:00:07+00:00,9.876522064209,15,Pure_Forward.csv,JOLVersionA.csv,"JOL Pure F A","JOL Pure F A",VILLAIN,BAD,Study1,F,68,22,Study,4,4,,Study/JOL,"Study Phase",22,JOL,5,5,,"How likely are you to correctly recall the second item in the pair?|Type your response on a scale from 0-100 and then press Enter.",4002,,,-1,-1,,,,100,5008,444,876,1,1
M20300117,bk7082kymt,Nick_Dissertation_EX2_EP_MSU_TEXAS,1,23,2022-11-09T00:00:17+00:00,9.9395740032196,15,Pure_Forward.csv,JOLVersionA.csv,"JOL Pure F A","JOL Pure F A",PAW,DOG,Study1,F,15,46,Study,4,4,,Study/JOL,"Study Phase",46,JOL,5,5,,"How likely are you to correctly recall the second item in the pair?|Type your response on a scale from 0-100 and then press Enter.",4001,,,-1,-1,,,,100,5008,796,1242,1,1
M20300117,bk7082kymt,Nick_Dissertation_EX2_EP_MSU_TEXAS,1,24,2022-11-09T00:00:27+00:00,9.9928369522095,15,Pure_Forward.csv,JOLVersionA.csv,"JOL Pure F A","JOL Pure F A",STRAWBERRY,FRUIT,Study1,F,74,30,Study,4,4,,Study/JOL,"Study Phase",30,JOL,5,5,,"How likely are you to correctly recall the second item in the pair?|Type your response on a scale from 0-100 and then press Enter.",4002,,,-1,-1,,,,100,5009,934,1311,1,1
M20300117,bk7082kymt,Nick_Dissertation_EX2_EP_MSU_TEXAS,1,25,2022-11-09T00:00:38+00:00,11.048281908035,15,Pure_Forward.csv,JOLVersionA.csv,"JOL Pure F A","JOL Pure F A",TUNA,FISH,Study1,F,25,21,Study,4,4,,Study/JOL,"Study Phase",21,JOL,5,5,,"How likely are you to correctly recall the second item in the pair?|Type your response on a scale from 0-100 and then press Enter.",4001,,,-1,-1,,,,100,5007,380,730,1,1
M20300117,bk7082kymt,Nick_Dissertation_EX2_EP_MSU_TEXAS,1,26,2022-11-09T00:00:49+00:00,10.317010164261,15,Pure_Forward.csv,JOLVersionA.csv,"JOL Pure F A","JOL Pure F A",CHISEL,HAMMER,Study1,F,9,31,Study,4,4,,Study/JOL,"Study Phase",31,JOL,5,5,,"How likely are you to correctly recall the second item in the pair?|Type your response on a scale from 0-100 and then press Enter.",4002,,,-1,-1,,,,0,5008,406,406,1,1
M20300117,bk7082kymt,Nick_Dissertation_EX2_EP_MSU_TEXAS,1,27,2022-11-09T00:00:58+00:00,9.9182147979736,15,Pure_Forward.csv,JOLVersionA.csv,"JOL Pure F A","JOL Pure F A",DELINQUENT,BAD,Study1,F,6,12,Study,4,4,,Study/JOL,"Study Phase",12,JOL,5,5,,"How likely are you to correctly recall the second item in the pair?|Type your response on a scale from 0-100 and then press Enter.",4004,,,-1,-1,,,,18,5015,427,607,1,1
M20300117,bk7082kymt,Nick_Dissertation_EX2_EP_MSU_TEXAS,1,28,2022-11-09T00:01:08+00:00,9.8822910785675,15,Pure_Forward.csv,JOLVersionA.csv,"JOL Pure F A","JOL Pure F A",BITTER,COLD,Study1,F,12,38,Study,4,4,,Study/JOL,"Study Phase",38,JOL,5,5,,"How likely are you to correctly recall the second item in the pair?|Type your response on a scale from 0-100 and then press Enter.",4003,,,-1,-1,,,,70,5009,508,671,1,1
M20300117,bk7082kymt,Nick_Dissertation_EX2_EP_MSU_TEXAS,1,29,2022-11-09T00:01:20+00:00,11.922936916351,15,Pure_Forward.csv,JOLVersionA.csv,"JOL Pure F A","JOL Pure F A",HORNET,STING,Study1,F,11,44,Study,4,4,,Study/JOL,"Study Phase",44,JOL,5,5,,"How likely are you to correctly recall the second item in the pair?|Type your response on a scale from 0-100 and then press Enter.",4002,,,-1,-1,,,,100,5011,370,722,1,1
M20300117,bk7082kymt,Nick_Dissertation_EX2_EP_MSU_TEXAS,1,30,2022-11-09T00:01:31+00:00,10.758965015411,15,Pure_Forward.csv,JOLVersionA.csv,"JOL Pure F A","JOL Pure F A",THIMBLE,THREAD,Study1,F,71,28,Study,4,4,,Study/JOL,"Study Phase",28,JOL,5,5,,"How likely are you to correctly recall the second item in the pair?|Type your response on a scale from 0-100 and then press Enter.",4002,,,-1,-1,,,,0,5010,374,374,1,1
M20300117,bk7082kymt,Nick_Dissertation_EX2_EP_MSU_TEXAS,1,31,2022-11-09T00:01:43+00:00,11.611723184586,15,Pure_Forward.csv,JOLVersionA.csv,"JOL Pure F A","JOL Pure F A",WAY,OUT,Study1,F,16,32,Study,4,4,,Study/JOL,"Study Phase",32,JOL,5,5,,"How likely are you to correctly recall the second item in the pair?|Type your response on a scale from 0-100 and then press Enter.",4001,,,-1,-1,,,,100,5010,399,867,1,1
M20300117,bk7082kymt,Nick_Dissertation_EX2_EP_MSU_TEXAS,1,32,2022-11-09T00:01:53+00:00,9.9168448448181,15,Pure_Forward.csv,JOLVersionA.csv,"JOL Pure F A","JOL Pure F A",BRAWL,FIGHT,Study1,F,85,26,Study,4,4,,Study/JOL,"Study Phase",26,JOL,5,5,,"How likely are you to correctly recall the second item in the pair?|Type your response on a scale from 0-100 and then press Enter.",4002,,,-1,-1,,,,6,5010,808,809,1,1
M20300117,bk7082kymt,Nick_Dissertation_EX2_EP_MSU_TEXAS,1,33,2022-11-09T00:02:02+00:00,9.8568890094757,15,Pure_Forward.csv,JOLVersionA.csv,"JOL Pure F A","JOL Pure F A",LEAGUE,BASEBALL,Study1,F,81,43,Study,4,4,,Study/JOL,"Study Phase",43,JOL,5,5,,"How likely are you to correctly recall the second item in the pair?|Type your response on a scale from 0-100 and then press Enter.",4002,,,-1,-1,,,,10,5008,470,525,1,1
M20300117,bk7082kymt,Nick_Dissertation_EX2_EP_MSU_TEXAS,1,34,2022-11-09T00:02:13+00:00,10.238425016403,15,Pure_Forward.csv,JOLVersionA.csv,"JOL Pure F A","JOL Pure F A",BALLOON,POP,Study1,F,73,7,Study,4,4,,Study/JOL,"Study Phase",7,JOL,5,5,,"How likely are you to correctly recall the second item in the pair?|Type your response on a scale from 0-100 and then press Enter.",4001,,,-1,-1,,,,16,5009,802,930,1,1
M20300117,bk7082kymt,Nick_Dissertation_EX2_EP_MSU_TEXAS,1,35,2022-11-09T00:02:23+00:00,10.802170038223,15,Pure_Forward.csv,JOLVersionA.csv,"JOL Pure F A","JOL Pure F A",COFFIN,DEAD,Study1,F,78,25,Study,4,4,,Study/JOL,"Study Phase",25,JOL,5,5,,"How likely are you to correctly recall the second item in the pair?|Type your response on a scale from 0-100 and then press Enter.",4002,,,-1,-1,,,,100,5011,447,784,1,1
M20300117,bk7082kymt,Nick_Dissertation_EX2_EP_MSU_TEXAS,1,36,2022-11-09T00:02:33+00:00,9.8255109786987,15,Pure_Forward.csv,JOLVersionA.csv,"JOL Pure F A","JOL Pure F A",TRUTHFUL,HONEST,Study1,F,83,13,Study,4,4,,Study/JOL,"Study Phase",13,JOL,5,5,,"How likely are you to correctly recall the second item in the pair?|Type your response on a scale from 0-100 and then press Enter.",4001,,,-1,-1,,,,90,5011,390,535,1,1
M20300117,bk7082kymt,Nick_Dissertation_EX2_EP_MSU_TEXAS,1,37,2022-11-09T00:02:43+00:00,10.088088035583,15,Pure_Forward.csv,JOLVersionA.csv,"JOL Pure F A","JOL Pure F A",HERD,COW,Study1,F,22,20,Study,4,4,,Study/JOL,"Study Phase",20,JOL,5,5,,"How likely are you to correctly recall the second item in the pair?|Type your response on a scale from 0-100 and then press Enter.",4001,,,-1,-1,,,,50,5008,401,564,1,1
M20300117,bk7082kymt,Nick_Dissertation_EX2_EP_MSU_TEXAS,1,38,2022-11-09T00:02:53+00:00,9.8260200023651,15,Pure_Forward.csv,JOLVersionA.csv,"JOL Pure F A","JOL Pure F A",DIGESTION,STOMACH,Study1,F,7,14,Study,4,4,,Study/JOL,"Study Phase",14,JOL,5,5,,"How likely are you to correctly recall the second item in the pair?|Type your response on a scale from 0-100 and then press Enter.",4001,,,-1,-1,,,,100,5010,339,765,1,1
M20300117,bk7082kymt,Nick_Dissertation_EX2_EP_MSU_TEXAS,1,39,2022-11-09T00:03:03+00:00,9.7831571102142,15,Pure_Forward.csv,JOLVersionA.csv,"JOL Pure F A","JOL Pure F A",CREDIT,CARD,Study1,F,23,9,Study,4,4,,Study/JOL,"Study Phase",9,JOL,5,5,,"How likely are you to correctly recall the second item in the pair?|Type your response on a scale from 0-100 and then press Enter.",4002,,,-1,-1,,,,100,5010,387,712,1,1
M20300117,bk7082kymt,Nick_Dissertation_EX2_EP_MSU_TEXAS,1,40,2022-11-09T00:03:14+00:00,10.886335849762,15,Pure_Forward.csv,JOLVersionA.csv,"JOL Pure F A","JOL Pure F A",DISCUSSION,TALK,Study1,F,21,24,Study,4,4,,Study/JOL,"Study Phase",24,JOL,5,5,,"How likely are you to correctly recall the second item in the pair?|Type your response on a scale from 0-100 and then press Enter.",4001,,,-1,-1,,,,100,5010,1402,1769,1,1
M20300117,bk7082kymt,Nick_Dissertation_EX2_EP_MSU_TEXAS,1,41,2022-11-09T00:03:25+00:00,11.293483972549,15,Pure_Forward.csv,JOLVersionA.csv,"JOL Pure F A","JOL Pure F A",SWAN,BIRD,Study1,F,14,40,Study,4,4,,Study/JOL,"Study Phase",40,JOL,5,5,,"How likely are you to correctly recall the second item in the pair?|Type your response on a scale from 0-100 and then press Enter.",4002,,,-1,-1,,,,23,5009,341,556,1,1
M20300117,bk7082kymt,Nick_Dissertation_EX2_EP_MSU_TEXAS,1,42,2022-11-09T00:03:36+00:00,11.275511980057,15,Pure_Forward.csv,JOLVersionA.csv,"JOL Pure F A","JOL Pure F A",ROOT,PLANT,Study1,F,13,37,Study,4,4,,Study/JOL,"Study Phase",37,JOL,5,5,,"How likely are you to correctly recall the second item in the pair?|Type your response on a scale from 0-100 and then press Enter.",4001,,,-1,-1,,,,90,5010,443,592,1,1
M20300117,bk7082kymt,Nick_Dissertation_EX2_EP_MSU_TEXAS,1,43,2022-11-09T00:03:47+00:00,10.188333034515,15,Pure_Forward.csv,JOLVersionA.csv,"JOL Pure F A","JOL Pure F A",HYGIENE,CLEAN,Study1,F,17,27,Study,4,4,,Study/JOL,"Study Phase",27,JOL,5,5,,"How likely are you to correctly recall the second item in the pair?|Type your response on a scale from 0-100 and then press Enter.",4002,,,-1,-1,,,,100,5009,794,1176,1,1
M20300117,bk7082kymt,Nick_Dissertation_EX2_EP_MSU_TEXAS,1,44,2022-11-09T00:03:57+00:00,10.409287929535,15,Pure_Forward.csv,JOLVersionA.csv,"JOL Pure F A","JOL Pure F A",NAP,SLEEP,Study1,F,84,16,Study,4,4,,Study/JOL,"Study Phase",16,JOL,5,5,,"How likely are you to correctly recall the second item in the pair?|Type your response on a scale from 0-100 and then press Enter.",4003,,,-1,-1,,,,100,5011,353,800,1,1
M20300117,bk7082kymt,Nick_Dissertation_EX2_EP_MSU_TEXAS,1,45,2022-11-09T00:04:07+00:00,9.8240330219269,15,Pure_Forward.csv,JOLVersionA.csv,"JOL Pure F A","JOL Pure F A",PANTHER,CAT,Study1,F,76,11,Study,4,4,,Study/JOL,"Study Phase",11,JOL,5,5,,"How likely are you to correctly recall the second item in the pair?|Type your response on a scale from 0-100 and then press Enter.",4002,,,-1,-1,,,,55,5009,343,572,1,1
M20300117,bk7082kymt,Nick_Dissertation_EX2_EP_MSU_TEXAS,1,46,2022-11-09T00:04:17+00:00,10.176467180252,15,Pure_Forward.csv,JOLVersionA.csv,"JOL Pure F A","JOL Pure F A",GEOLOGY,ROCK,Study1,F,19,34,Study,4,4,,Study/JOL,"Study Phase",34,JOL,5,5,,"How likely are you to correctly recall the second item in the pair?|Type your response on a scale from 0-100 and then press Enter.",4003,,,-1,-1,,,,0,5009,382,382,1,1
M20300117,bk7082kymt,Nick_Dissertation_EX2_EP_MSU_TEXAS,1,47,2022-11-09T00:04:27+00:00,9.8149919509888,15,Pure_Forward.csv,JOLVersionA.csv,"JOL Pure F A","JOL Pure F A",PENGUIN,BIRD,Study1,F,69,36,Study,4,4,,Study/JOL,"Study Phase",36,JOL,5,5,,"How likely are you to correctly recall the second item in the pair?|Type your response on a scale from 0-100 and then press Enter.",4002,,,-1,-1,,,,100,5010,307,640,1,1
M20300117,bk7082kymt,Nick_Dissertation_EX2_EP_MSU_TEXAS,1,48,2022-11-09T00:04:37+00:00,9.9794418811798,15,Pure_Forward.csv,JOLVersionA.csv,"JOL Pure F A","JOL Pure F A",REVOLUTION,WAR,Study1,F,20,8,Study,4,4,,Study/JOL,"Study Phase",8,JOL,5,5,,"How likely are you to correctly recall the second item in the pair?|Type your response on a scale from 0-100 and then press Enter.",4002,,,-1,-1,,,,95,5010,1236,1681,1,1
M20300117,bk7082kymt,Nick_Dissertation_EX2_EP_MSU_TEXAS,1,49,2022-11-09T00:04:48+00:00,11.069300174713,15,Pure_Forward.csv,JOLVersionA.csv,"JOL Pure F A","JOL Pure F A",ORCHID,FLOWER,Study1,F,24,41,Study,4,4,,Study/JOL,"Study Phase",41,JOL,5,5,,"How likely are you to correctly recall the second item in the pair?|Type your response on a scale from 0-100 and then press Enter.",4001,,,-1,-1,,,,65,5008,300,482,1,1
M20300117,bk7082kymt,Nick_Dissertation_EX2_EP_MSU_TEXAS,1,50,2022-11-09T00:04:58+00:00,10.271644830704,15,Pure_Forward.csv,JOLVersionA.csv,"JOL Pure F A","JOL Pure F A",SARDINE,FISH,Study1,F,80,18,Study,4,4,,Study/JOL,"Study Phase",18,JOL,5,5,,"How likely are you to correctly recall the second item in the pair?|Type your response on a scale from 0-100 and then press Enter.",4002,,,-1,-1,,,,97,5010,443,644,1,1
M20300117,bk7082kymt,Nick_Dissertation_EX2_EP_MSU_TEXAS,1,51,2022-11-09T00:05:09+00:00,10.84539103508,15,Pure_Forward.csv,JOLVersionA.csv,"JOL Pure F A","JOL Pure F A",GEESE,GOOSE,BUFFER2,Buffer,86,51,Study,4,4,,Study/JOL,BUFFER2,51,JOL,5,5,,"How likely are you to correctly recall the second item in the pair?|Type your response on a scale from 0-100 and then press Enter.",4002,,,-1,-1,,,,100,5010,390,714,1,1
M20300117,bk7082kymt,Nick_Dissertation_EX2_EP_MSU_TEXAS,1,52,2022-11-09T00:05:20+00:00,11.075902938843,15,Pure_Forward.csv,JOLVersionA.csv,"JOL Pure F A","JOL Pure F A",MALT,CHOCOLATE,BUFFER2,Buffer,88,47,Study,4,4,,Study/JOL,BUFFER2,47,JOL,5,5,,"How likely are you to correctly recall the second item in the pair?|Type your response on a scale from 0-100 and then press Enter.",4001,,,-1,-1,,,,78,5010,409,576,1,1
M20300117,bk7082kymt,Nick_Dissertation_EX2_EP_MSU_TEXAS,1,53,2022-11-09T00:05:31+00:00,10.861575126648,15,Pure_Forward.csv,JOLVersionA.csv,"JOL Pure F A","JOL Pure F A",MOON,SPACE,BUFFER2,Buffer,89,48,Study,4,4,,Study/JOL,BUFFER2,48,JOL,5,5,,"How likely are you to correctly recall the second item in the pair?|Type your response on a scale from 0-100 and then press Enter.",4000,,,-1,-1,,,,100,5009,488,931,1,1
M20300117,bk7082kymt,Nick_Dissertation_EX2_EP_MSU_TEXAS,1,54,2022-11-09T00:05:41+00:00,10.035791873932,15,Pure_Forward.csv,JOLVersionA.csv,"JOL Pure F A","JOL Pure F A",THING,STUFF,BUFFER2,Buffer,90,50,Study,4,4,,Study/JOL,BUFFER2,50,JOL,5,5,,"How likely are you to correctly recall the second item in the pair?|Type your response on a scale from 0-100 and then press Enter.",4002,,,-1,-1,,,,50,5008,351,462,1,1
M20300117,bk7082kymt,Nick_Dissertation_EX2_EP_MSU_TEXAS,1,55,2022-11-09T00:05:52+00:00,10.85706615448,15,Pure_Forward.csv,JOLVersionA.csv,"JOL Pure F A","JOL Pure F A",SHERRIF,POLICE,BUFFER2,Buffer,87,49,Study,4,4,,Study/JOL,BUFFER2,49,JOL,5,5,,"How likely are you to correctly recall the second item in the pair?|Type your response on a scale from 0-100 and then press Enter.",4002,,,-1,-1,,,,100,5009,379,868,1,1
M20300117,bk7082kymt,Nick_Dissertation_EX2_EP_MSU_TEXAS,1,56,2022-11-09T00:05:57+00:00,4.786052942276,15,Pure_Forward.csv,JOLVersionA.csv,"JOL Pure F A","JOL Pure F A",,,,,,0,Instruct,User,-,"You have completed this section. Please press Enter.",Filler_Instruction,Instruct2,,No,,,,,4305,,,-1,-1,,,,,,,,1,
M20300117,bk7082kymt,Nick_Dissertation_EX2_EP_MSU_TEXAS,1,57,2022-11-09T00:07:57+00:00,120.72450709343,15,Pure_Forward.csv,JOLVersionA.csv,"JOL Pure F A","JOL Pure F A",,,,,,0,FreeRecall,120,120,"Please list the 50 US states in alphabetical order. The task will automatically advance to the next screen after two minutes.",,Filler1,,No,,,,,120002,"alabama Alaska arizona Arkansas california colorado Connecticut Delaware florida georgia hawaii Idaho Illinois ind ",0,30944,119872,0,0,,,,,,1,
M20300117,bk7082kymt,Nick_Dissertation_EX2_EP_MSU_TEXAS,1,58,2022-11-09T00:08:14+00:00,16.259878873825,15,Pure_Forward.csv,JOLVersionA.csv,"JOL Pure F A","JOL Pure F A",,,,,,0,Instruct,-,10,"You will now be presented with the first word from each of the previously studied item pairs. Please type the missing word. If you do not know the word, you may guess or press Enter to skip forward to the next pair.",,Instruct3,,No,,,,,15787,,,-1,-1,,,,,,,,1,
M20300117,bk7082kymt,Nick_Dissertation_EX2_EP_MSU_TEXAS,1,59,2022-11-09T00:08:18+00:00,3.9483830928802,15,Pure_Forward.csv,JOLVersionA.csv,"JOL Pure F A","JOL Pure F A",ROOT,PLANT,Study1,F,13,37,Test,User,-,,Recall,Recall1,,No,,,,,3696,plant,100,2259,3061,1,1,,,,,,1,
M20300117,bk7082kymt,Nick_Dissertation_EX2_EP_MSU_TEXAS,1,60,2022-11-09T00:08:20+00:00,2.9532508850098,15,Pure_Forward.csv,JOLVersionA.csv,"JOL Pure F A","JOL Pure F A",WINDSHIELD,CAR,Study1,F,67,17,Test,User,-,,Recall,Recall1,,No,,,,,2578,car,100,1652,2227,1,1,,,,,,1,
M20300117,bk7082kymt,Nick_Dissertation_EX2_EP_MSU_TEXAS,1,61,2022-11-09T00:08:25+00:00,4.8860809803009,15,Pure_Forward.csv,JOLVersionA.csv,"JOL Pure F A","JOL Pure F A",ACTRESS,STAR,Study1,F,70,42,Test,User,-,,Recall,Recall1,,No,,,,,4045,star,100,2930,3699,1,1,,,,,,1,
M20300117,bk7082kymt,Nick_Dissertation_EX2_EP_MSU_TEXAS,1,62,2022-11-09T00:08:28+00:00,2.8633110523224,15,Pure_Forward.csv,JOLVersionA.csv,"JOL Pure F A","JOL Pure F A",VILLAIN,BAD,Study1,F,68,22,Test,User,-,,Recall,Recall1,,No,,,,,2153,bad,100,1374,1909,1,1,,,,,,1,
M20300117,bk7082kymt,Nick_Dissertation_EX2_EP_MSU_TEXAS,1,63,2022-11-09T00:08:31+00:00,3.1419770717621,15,Pure_Forward.csv,JOLVersionA.csv,"JOL Pure F A","JOL Pure F A",ORCHID,FLOWER,Study1,F,24,41,Test,User,-,,Recall,Recall1,,No,,,,,2894,flower,100,1472,2602,1,1,,,,,,1,
M20300117,bk7082kymt,Nick_Dissertation_EX2_EP_MSU_TEXAS,1,64,2022-11-09T00:08:35+00:00,3.9230830669403,15,Pure_Forward.csv,JOLVersionA.csv,"JOL Pure F A","JOL Pure F A",LEAGUE,BASEBALL,Study1,F,81,43,Test,User,-,,Recall,Recall1,,No,,,,,3613,baseball,100,1277,3245,1,1,,,,,,1,
M20300117,bk7082kymt,Nick_Dissertation_EX2_EP_MSU_TEXAS,1,65,2022-11-09T00:08:38+00:00,2.6734709739685,15,Pure_Forward.csv,JOLVersionA.csv,"JOL Pure F A","JOL Pure F A",CREDIT,CARD,Study1,F,23,9,Test,User,-,,Recall,Recall1,,No,,,,,2362,card,100,1151,1942,1,1,,,,,,1,
M20300117,bk7082kymt,Nick_Dissertation_EX2_EP_MSU_TEXAS,1,66,2022-11-09T00:08:41+00:00,2.9844648838043,15,Pure_Forward.csv,JOLVersionA.csv,"JOL Pure F A","JOL Pure F A",FLIP,TURN,Study1,F,66,19,Test,User,-,,Recall,Recall1,,No,,,,,2685,turn,100,1675,2234,1,1,,,,,,1,
M20300117,bk7082kymt,Nick_Dissertation_EX2_EP_MSU_TEXAS,1,67,2022-11-09T00:08:49+00:00,8.3713419437408,15,Pure_Forward.csv,JOLVersionA.csv,"JOL Pure F A","JOL Pure F A",TRUTHFUL,HONEST,Study1,F,83,13,Test,User,-,,Recall,Recall1,,No,,,,,7906,hateful,30.769230769231,4388,5702,0,0,,,,,,1,
M20300117,bk7082kymt,Nick_Dissertation_EX2_EP_MSU_TEXAS,1,68,2022-11-09T00:08:53+00:00,3.9734292030334,15,Pure_Forward.csv,JOLVersionA.csv,"JOL Pure F A","JOL Pure F A",DIGESTION,STOMACH,Study1,F,7,14,Test,User,-,,Recall,Recall1,,No,,,,,3668,stomach,100,1442,3159,1,1,,,,,,1,
M20300117,bk7082kymt,Nick_Dissertation_EX2_EP_MSU_TEXAS,1,69,2022-11-09T00:08:59+00:00,6.0438368320465,15,Pure_Forward.csv,JOLVersionA.csv,"JOL Pure F A","JOL Pure F A",CHISEL,HAMMER,Study1,F,9,31,Test,User,-,,Recall,Recall1,,No,,,,,5535,hammer,100,3021,4857,1,1,,,,,,1,
M20300117,bk7082kymt,Nick_Dissertation_EX2_EP_MSU_TEXAS,1,70,2022-11-09T00:09:05+00:00,5.3383960723877,15,Pure_Forward.csv,JOLVersionA.csv,"JOL Pure F A","JOL Pure F A",EDITOR,NEWS,Study1,F,10,39,Test,User,-,,Recall,Recall1,,No,,,,,4898,news,100,3855,4610,1,1,,,,,,1,
M20300117,bk7082kymt,Nick_Dissertation_EX2_EP_MSU_TEXAS,1,71,2022-11-09T00:09:07+00:00,2.3930220603943,15,Pure_Forward.csv,JOLVersionA.csv,"JOL Pure F A","JOL Pure F A",PANTHER,CAT,Study1,F,76,11,Test,User,-,,Recall,Recall1,,No,,,,,2133,cat,100,1401,1771,1,1,,,,,,1,
M20300117,bk7082kymt,Nick_Dissertation_EX2_EP_MSU_TEXAS,1,72,2022-11-09T00:09:10+00:00,3.2748589515686,15,Pure_Forward.csv,JOLVersionA.csv,"JOL Pure F A","JOL Pure F A",BITTER,COLD,Study1,F,12,38,Test,User,-,,Recall,Recall1,,No,,,,,3005,sweet,0,1533,2613,0,0,,,,,,1,
M20300117,bk7082kymt,Nick_Dissertation_EX2_EP_MSU_TEXAS,1,73,2022-11-09T00:09:14+00:00,3.8336489200592,15,Pure_Forward.csv,JOLVersionA.csv,"JOL Pure F A","JOL Pure F A",BANKER,MONEY,Study1,F,82,45,Test,User,-,,Recall,Recall1,,No,,,,,3275,money,100,2019,2822,1,1,,,,,,1,
M20300117,bk7082kymt,Nick_Dissertation_EX2_EP_MSU_TEXAS,1,74,2022-11-09T00:09:17+00:00,2.8059611320496,15,Pure_Forward.csv,JOLVersionA.csv,"JOL Pure F A","JOL Pure F A",SARDINE,FISH,Study1,F,80,18,Test,User,-,,Recall,Recall1,,No,,,,,2469,fish,100,1369,1974,1,1,,,,,,1,
M20300117,bk7082kymt,Nick_Dissertation_EX2_EP_MSU_TEXAS,1,75,2022-11-09T00:09:20+00:00,3.2199239730835,15,Pure_Forward.csv,JOLVersionA.csv,"JOL Pure F A","JOL Pure F A",COFFIN,DEAD,Study1,F,78,25,Test,User,-,,Recall,Recall1,,No,,,,,2967,dead,100,1901,2397,1,1,,,,,,1,
M20300117,bk7082kymt,Nick_Dissertation_EX2_EP_MSU_TEXAS,1,76,2022-11-09T00:09:23+00:00,2.6223740577698,15,Pure_Forward.csv,JOLVersionA.csv,"JOL Pure F A","JOL Pure F A",FAVORITE,BEST,Study1,F,75,15,Test,User,-,,Recall,Recall1,,No,,,,,2281,best,100,1335,1843,1,1,,,,,,1,
M20300117,bk7082kymt,Nick_Dissertation_EX2_EP_MSU_TEXAS,1,77,2022-11-09T00:09:27+00:00,4.6417398452759,15,Pure_Forward.csv,JOLVersionA.csv,"JOL Pure F A","JOL Pure F A",STRAWBERRY,FRUIT,Study1,F,74,30,Test,User,-,,Recall,Recall1,,No,,,,,3957,fruit,100,1561,3700,1,1,,,,,,1,
M20300117,bk7082kymt,Nick_Dissertation_EX2_EP_MSU_TEXAS,1,78,2022-11-09T00:09:30+00:00,2.7406940460205,15,Pure_Forward.csv,JOLVersionA.csv,"JOL Pure F A","JOL Pure F A",HYGIENE,CLEAN,Study1,F,17,27,Test,User,-,,Recall,Recall1,,No,,,,,2392,clean,100,1190,2002,1,1,,,,,,1,
M20300117,bk7082kymt,Nick_Dissertation_EX2_EP_MSU_TEXAS,1,79,2022-11-09T00:09:34+00:00,3.402715921402,15,Pure_Forward.csv,JOLVersionA.csv,"JOL Pure F A","JOL Pure F A",NAP,SLEEP,Study1,F,84,16,Test,User,-,,Recall,Recall1,,No,,,,,2142,sleep,100,1162,1875,1,1,,,,,,1,
M20300117,bk7082kymt,Nick_Dissertation_EX2_EP_MSU_TEXAS,1,80,2022-11-09T00:09:36+00:00,2.3422009944916,15,Pure_Forward.csv,JOLVersionA.csv,"JOL Pure F A","JOL Pure F A",BRIDGE,WATER,Study1,F,18,35,Test,User,-,,Recall,Recall1,,No,,,,,2111,water,100,1149,1894,1,1,,,,,,1,
M20300117,bk7082kymt,Nick_Dissertation_EX2_EP_MSU_TEXAS,1,81,2022-11-09T00:09:39+00:00,3.1951971054077,15,Pure_Forward.csv,JOLVersionA.csv,"JOL Pure F A","JOL Pure F A",HORNET,STING,Study1,F,11,44,Test,User,-,,Recall,Recall1,,No,,,,,2955,bee,0,2345,2741,0,0,,,,,,1,
M20300117,bk7082kymt,Nick_Dissertation_EX2_EP_MSU_TEXAS,1,82,2022-11-09T00:09:49+00:00,9.4583208560944,15,Pure_Forward.csv,JOLVersionA.csv,"JOL Pure F A","JOL Pure F A",SWAN,BIRD,Study1,F,14,40,Test,User,-,,Recall,Recall1,,No,,,,,4116,bird,100,2271,3074,1,1,,,,,,1,
M20300117,bk7082kymt,Nick_Dissertation_EX2_EP_MSU_TEXAS,1,83,2022-11-09T00:09:55+00:00,6.132826089859,15,Pure_Forward.csv,JOLVersionA.csv,"JOL Pure F A","JOL Pure F A",WAY,OUT,Study1,F,16,32,Test,User,-,,Recall,Recall1,,No,,,,,5690,go,40,5156,5380,0,0,,,,,,1,
M20300117,bk7082kymt,Nick_Dissertation_EX2_EP_MSU_TEXAS,1,84,2022-11-09T00:09:58+00:00,3.1413879394531,15,Pure_Forward.csv,JOLVersionA.csv,"JOL Pure F A","JOL Pure F A",BREAKABLE,GLASS,Study1,F,77,10,Test,User,-,,Recall,Recall1,,No,,,,,2908,glass,100,1863,2687,1,1,,,,,,1,
M20300117,bk7082kymt,Nick_Dissertation_EX2_EP_MSU_TEXAS,1,85,2022-11-09T00:10:01+00:00,3.2559430599213,15,Pure_Forward.csv,JOLVersionA.csv,"JOL Pure F A","JOL Pure F A",PAW,DOG,Study1,F,15,46,Test,User,-,,Recall,Recall1,,No,,,,,2900,dog,100,2018,2624,1,1,,,,,,1,
M20300117,bk7082kymt,Nick_Dissertation_EX2_EP_MSU_TEXAS,1,86,2022-11-09T00:10:04+00:00,3.1236770153046,15,Pure_Forward.csv,JOLVersionA.csv,"JOL Pure F A","JOL Pure F A",GEOLOGY,ROCK,Study1,F,19,34,Test,User,-,,Recall,Recall1,,No,,,,,2720,rocks,88.888888888889,1392,2355,0,1,,,,,,1,
M20300117,bk7082kymt,Nick_Dissertation_EX2_EP_MSU_TEXAS,1,87,2022-11-09T00:10:07+00:00,3.1913130283356,15,Pure_Forward.csv,JOLVersionA.csv,"JOL Pure F A","JOL Pure F A",HERD,COW,Study1,F,22,20,Test,User,-,,Recall,Recall1,,No,,,,,2907,cow,100,2070,2652,1,1,,,,,,1,
M20300117,bk7082kymt,Nick_Dissertation_EX2_EP_MSU_TEXAS,1,88,2022-11-09T00:10:13+00:00,5.1031670570374,15,Pure_Forward.csv,JOLVersionA.csv,"JOL Pure F A","JOL Pure F A",AIRCRAFT,PLANE,Study1,F,79,23,Test,User,-,,Recall,Recall1,,No,,,,,4623,plANE,100,1621,4371,1,1,,,,,,1,
M20300117,bk7082kymt,Nick_Dissertation_EX2_EP_MSU_TEXAS,1,89,2022-11-09T00:10:20+00:00,7.7267229557037,15,Pure_Forward.csv,JOLVersionA.csv,"JOL Pure F A","JOL Pure F A",BALLOON,POP,Study1,F,73,7,Test,User,-,,Recall,Recall1,,No,,,,,7281,pop,100,1457,6805,1,1,,,,,,1,
M20300117,bk7082kymt,Nick_Dissertation_EX2_EP_MSU_TEXAS,1,90,2022-11-09T00:10:28+00:00,7.5512008666992,15,Pure_Forward.csv,JOLVersionA.csv,"JOL Pure F A","JOL Pure F A",THIMBLE,THREAD,Study1,F,71,28,Test,User,-,,Recall,Recall1,,No,,,,,6826,thread,100,5549,6557,1,1,,,,,,1,
M20300117,bk7082kymt,Nick_Dissertation_EX2_EP_MSU_TEXAS,1,91,2022-11-09T00:10:32+00:00,4.3064091205597,15,Pure_Forward.csv,JOLVersionA.csv,"JOL Pure F A","JOL Pure F A",DISCUSSION,TALK,Study1,F,21,24,Test,User,-,,Recall,Recall1,,No,,,,,3163,talk,100,2133,2880,1,1,,,,,,1,
M20300117,bk7082kymt,Nick_Dissertation_EX2_EP_MSU_TEXAS,1,92,2022-11-09T00:10:36+00:00,3.6842770576477,15,Pure_Forward.csv,JOLVersionA.csv,"JOL Pure F A","JOL Pure F A",BRAWL,FIGHT,Study1,F,85,26,Test,User,-,,Recall,Recall1,,No,,,,,3348,,0,1749,1749,0,0,,,,,,1,
M20300117,bk7082kymt,Nick_Dissertation_EX2_EP_MSU_TEXAS,1,93,2022-11-09T00:10:40+00:00,3.7211408615112,15,Pure_Forward.csv,JOLVersionA.csv,"JOL Pure F A","JOL Pure F A",WAGE,MONEY,Study1,F,8,29,Test,User,-,,Recall,Recall1,,No,,,,,3370,money,100,2203,3055,1,1,,,,,,1,
M20300117,bk7082kymt,Nick_Dissertation_EX2_EP_MSU_TEXAS,1,94,2022-11-09T00:10:46+00:00,6.8672449588776,15,Pure_Forward.csv,JOLVersionA.csv,"JOL Pure F A","JOL Pure F A",DELINQUENT,BAD,Study1,F,6,12,Test,User,-,,Recall,Recall1,,No,,,,,6427,evil,0,3590,6112,0,0,,,,,,1,
M20300117,bk7082kymt,Nick_Dissertation_EX2_EP_MSU_TEXAS,1,95,2022-11-09T00:10:49+00:00,2.1698470115662,15,Pure_Forward.csv,JOLVersionA.csv,"JOL Pure F A","JOL Pure F A",PENGUIN,BIRD,Study1,F,69,36,Test,User,-,,Recall,Recall1,,No,,,,,1953,bird,100,1083,1766,1,1,,,,,,1,
M20300117,bk7082kymt,Nick_Dissertation_EX2_EP_MSU_TEXAS,1,96,2022-11-09T00:10:51+00:00,2.7828481197357,15,Pure_Forward.csv,JOLVersionA.csv,"JOL Pure F A","JOL Pure F A",REVOLUTION,WAR,Study1,F,20,8,Test,User,-,,Recall,Recall1,,No,,,,,2543,war,100,1675,2127,1,1,,,,,,1,
M20300117,bk7082kymt,Nick_Dissertation_EX2_EP_MSU_TEXAS,1,97,2022-11-09T00:10:59+00:00,7.8243100643158,15,Pure_Forward.csv,JOLVersionA.csv,"JOL Pure F A","JOL Pure F A",REVENGE,EVEN,Study1,F,72,33,Test,User,-,,Recall,Recall1,,No,,,,,7328,even,100,6334,6941,1,1,,,,,,1,
M20300117,bk7082kymt,Nick_Dissertation_EX2_EP_MSU_TEXAS,1,98,2022-11-09T00:11:02+00:00,2.3080389499664,15,Pure_Forward.csv,JOLVersionA.csv,"JOL Pure F A","JOL Pure F A",TUNA,FISH,Study1,F,25,21,Test,User,-,,Recall,Recall1,,No,,,,,2037,fish,100,1064,1624,1,1,,,,,,1,
M20300117,bk7082kymt,Nick_Dissertation_EX2_EP_MSU_TEXAS,1,99,2022-11-09T00:11:20+00:00,18.80781006813,15,Pure_Forward.csv,JOLVersionA.csv,"JOL Pure F A","JOL Pure F A",,,,,,0,Instruct,-,10,"You will now be presented with a new set of word pairs. Please study each pair. Remember that your memory will be tested! When finished, press Enter to move to the next pair.",Initial_Instruct,Instruct4,,No,,,,,18380,,,-1,-1,,,,,,,,1,
M20300117,bk7082kymt,Nick_Dissertation_EX2_EP_MSU_TEXAS,1,100,2022-11-09T00:11:32+00:00,11.625742912292,15,Pure_Forward.csv,JOLVersionA.csv,"JOL Pure F A","JOL Pure F A",,,,,,0,Instruct,,10,"You will again be asked to rate your ability to remember these items using a 0 to 100 scale. Remember to use the full range of the scale!",,Instruct10,,No,,,,,11263,,,-1,-1,,,,,,,,1,
M20300117,bk7082kymt,Nick_Dissertation_EX2_EP_MSU_TEXAS,1,101,2022-11-09T00:11:48+00:00,16.424077987671,15,Pure_Forward.csv,JOLVersionA.csv,"JOL Pure F A","JOL Pure F A",,,,,,0,Instruct,User,-,"Each word will be displayed on the computer screen for 4 seconds. You will then have 4 seconds to make your rating. The screen will automatically move to the next pair when time is up. Press Enter when you are ready to begin.",,Instruct11,,No,,,,,15963,,,-1,-1,,,,,,,,1,
M20300117,bk7082kymt,Nick_Dissertation_EX2_EP_MSU_TEXAS,1,102,2022-11-09T00:11:58+00:00,9.8309218883514,15,Pure_Forward.csv,JOLVersionA.csv,"JOL Pure F A","JOL Pure F A",SHRIMP,FISH,BUFFER3,Buffer,93,55,Study,4,4,,Study/JOL,BUFFER3,55,JOL,5,5,BUFFER3,"How likely are you to correctly recall the second item in the pair?|Type your response on a scale from 0-100 and then press Enter.",4003,,,-1,-1,,,,80,5010,2563,2849,1,1
M20300117,bk7082kymt,Nick_Dissertation_EX2_EP_MSU_TEXAS,1,103,2022-11-09T00:12:08+00:00,9.7466990947723,15,Pure_Forward.csv,JOLVersionA.csv,"JOL Pure F A","JOL Pure F A",CARROT,POTATO,BUFFER3,Buffer,91,56,Study,4,4,,Study/JOL,BUFFER3,56,JOL,5,5,BUFFER3,"How likely are you to correctly recall the second item in the pair?|Type your response on a scale from 0-100 and then press Enter.",4000,,,-1,-1,,,,35,5009,1230,1489,1,1
M20300117,bk7082kymt,Nick_Dissertation_EX2_EP_MSU_TEXAS,1,104,2022-11-09T00:12:18+00:00,9.9006578922272,15,Pure_Forward.csv,JOLVersionA.csv,"JOL Pure F A","JOL Pure F A",CAMP,ADVENTURE,BUFFER3,Buffer,95,53,Study,4,4,,Study/JOL,BUFFER3,53,JOL,5,5,BUFFER3,"How likely are you to correctly recall the second item in the pair?|Type your response on a scale from 0-100 and then press Enter.",4000,,,-1,-1,,,,50,5010,1119,1243,1,1
M20300117,bk7082kymt,Nick_Dissertation_EX2_EP_MSU_TEXAS,1,105,2022-11-09T00:12:28+00:00,10.255939006805,15,Pure_Forward.csv,JOLVersionA.csv,"JOL Pure F A","JOL Pure F A",NOODLE,STRING,BUFFER3,Buffer,92,54,Study,4,4,,Study/JOL,BUFFER3,54,JOL,5,5,BUFFER3,"How likely are you to correctly recall the second item in the pair?|Type your response on a scale from 0-100 and then press Enter.",4001,,,-1,-1,,,,60,5010,1996,2079,1,1
M20300117,bk7082kymt,Nick_Dissertation_EX2_EP_MSU_TEXAS,1,106,2022-11-09T00:12:39+00:00,10.475443124771,15,Pure_Forward.csv,JOLVersionA.csv,"JOL Pure F A","JOL Pure F A",ICE,FROZEN,BUFFER3,Buffer,94,52,Study,4,4,,Study/JOL,BUFFER3,52,JOL,5,5,BUFFER3,"How likely are you to correctly recall the second item in the pair?|Type your response on a scale from 0-100 and then press Enter.",4001,,,-1,-1,,,,100,5009,347,2017,1,1
M20300117,bk7082kymt,Nick_Dissertation_EX2_EP_MSU_TEXAS,1,107,2022-11-09T00:12:49+00:00,10.424701929092,15,Pure_Forward.csv,JOLVersionA.csv,"JOL Pure F A","JOL Pure F A",BLAZE,FIRE,Study2,F,115,77,Study,4,4,,Study/JOL,"Study Phase2",77,JOL,5,5,"Study Phase2","How likely are you to correctly recall the second item in the pair?|Type your response on a scale from 0-100 and then press Enter.",4001,,,-1,-1,,,,70,5009,329,521,1,1
M20300117,bk7082kymt,Nick_Dissertation_EX2_EP_MSU_TEXAS,1,108,2022-11-09T00:13:01+00:00,11.913604974747,15,Pure_Forward.csv,JOLVersionA.csv,"JOL Pure F A","JOL Pure F A",CLUE,GAME,Study2,F,157,90,Study,4,4,,Study/JOL,"Study Phase2",90,JOL,5,5,"Study Phase2","How likely are you to correctly recall the second item in the pair?|Type your response on a scale from 0-100 and then press Enter.",4001,,,-1,-1,,,,88,5011,333,498,1,1
M20300117,bk7082kymt,Nick_Dissertation_EX2_EP_MSU_TEXAS,1,109,2022-11-09T00:13:11+00:00,10.203562021255,15,Pure_Forward.csv,JOLVersionA.csv,"JOL Pure F A","JOL Pure F A",FEUD,FIGHT,Study2,F,173,72,Study,4,4,,Study/JOL,"Study Phase2",72,JOL,5,5,"Study Phase2","How likely are you to correctly recall the second item in the pair?|Type your response on a scale from 0-100 and then press Enter.",4002,,,-1,-1,,,,5,5007,327,327,1,1
M20300117,bk7082kymt,Nick_Dissertation_EX2_EP_MSU_TEXAS,1,110,2022-11-09T00:13:21+00:00,9.8396141529083,15,Pure_Forward.csv,JOLVersionA.csv,"JOL Pure F A","JOL Pure F A",STENCH,SMELL,Study2,F,112,84,Study,4,4,,Study/JOL,"Study Phase2",84,JOL,5,5,"Study Phase2","How likely are you to correctly recall the second item in the pair?|Type your response on a scale from 0-100 and then press Enter.",4001,,,-1,-1,,,,45,5008,409,642,1,1
M20300117,bk7082kymt,Nick_Dissertation_EX2_EP_MSU_TEXAS,1,111,2022-11-09T00:13:31+00:00,9.999137878418,15,Pure_Forward.csv,JOLVersionA.csv,"JOL Pure F A","JOL Pure F A",DINE,EAT,Study2,F,171,96,Study,4,4,,Study/JOL,"Study Phase2",96,JOL,5,5,"Study Phase2","How likely are you to correctly recall the second item in the pair?|Type your response on a scale from 0-100 and then press Enter.",4001,,,-1,-1,,,,90,5011,420,649,1,1
M20300117,bk7082kymt,Nick_Dissertation_EX2_EP_MSU_TEXAS,1,112,2022-11-09T00:13:41+00:00,10.038758993149,15,Pure_Forward.csv,JOLVersionA.csv,"JOL Pure F A","JOL Pure F A",ENOUGH,FULL,Study2,F,96,68,Study,4,4,,Study/JOL,"Study Phase2",68,JOL,5,5,"Study Phase2","How likely are you to correctly recall the second item in the pair?|Type your response on a scale from 0-100 and then press Enter.",4002,,,-1,-1,,,,89,5010,482,709,1,1
M20300117,bk7082kymt,Nick_Dissertation_EX2_EP_MSU_TEXAS,1,113,2022-11-09T00:13:51+00:00,9.754390001297,15,Pure_Forward.csv,JOLVersionA.csv,"JOL Pure F A","JOL Pure F A",MULE,DONKEY,Study2,F,168,65,Study,4,4,,Study/JOL,"Study Phase2",65,JOL,5,5,"Study Phase2","How likely are you to correctly recall the second item in the pair?|Type your response on a scale from 0-100 and then press Enter.",4002,,,-1,-1,,,,100,5008,460,1102,1,1
M20300117,bk7082kymt,Nick_Dissertation_EX2_EP_MSU_TEXAS,1,114,2022-11-09T00:14:01+00:00,9.766263961792,15,Pure_Forward.csv,JOLVersionA.csv,"JOL Pure F A","JOL Pure F A",SHEARS,SCISSORS,Study2,F,172,67,Study,4,4,,Study/JOL,"Study Phase2",67,JOL,5,5,"Study Phase2","How likely are you to correctly recall the second item in the pair?|Type your response on a scale from 0-100 and then press Enter.",4001,,,-1,-1,,,,67,5011,355,530,1,1
M20300117,bk7082kymt,Nick_Dissertation_EX2_EP_MSU_TEXAS,1,115,2022-11-09T00:14:10+00:00,9.8694450855255,15,Pure_Forward.csv,JOLVersionA.csv,"JOL Pure F A","JOL Pure F A",FAMINE,HUNGER,Study2,F,110,88,Study,4,4,,Study/JOL,"Study Phase2",88,JOL,5,5,"Study Phase2","How likely are you to correctly recall the second item in the pair?|Type your response on a scale from 0-100 and then press Enter.",4001,,,-1,-1,,,,3,5009,882,883,1,1
M20300117,bk7082kymt,Nick_Dissertation_EX2_EP_MSU_TEXAS,1,116,2022-11-09T00:14:20+00:00,9.8094439506531,15,Pure_Forward.csv,JOLVersionA.csv,"JOL Pure F A","JOL Pure F A",CHORE,WORK,Study2,F,109,74,Study,4,4,,Study/JOL,"Study Phase2",74,JOL,5,5,"Study Phase2","How likely are you to correctly recall the second item in the pair?|Type your response on a scale from 0-100 and then press Enter.",4002,,,-1,-1,,,,100,5011,157,693,1,1
M20300117,bk7082kymt,Nick_Dissertation_EX2_EP_MSU_TEXAS,1,117,2022-11-09T00:14:30+00:00,9.9019031524658,15,Pure_Forward.csv,JOLVersionA.csv,"JOL Pure F A","JOL Pure F A",WORD,SENTENCE,Study2,F,101,75,Study,4,4,,Study/JOL,"Study Phase2",75,JOL,5,5,"Study Phase2","How likely are you to correctly recall the second item in the pair?|Type your response on a scale from 0-100 and then press Enter.",4002,,,-1,-1,,,,100,5012,404,910,1,1
M20300117,bk7082kymt,Nick_Dissertation_EX2_EP_MSU_TEXAS,1,118,2022-11-09T00:14:40+00:00,9.8647367954254,15,Pure_Forward.csv,JOLVersionA.csv,"JOL Pure F A","JOL Pure F A",SHOELACE,TIE,Study2,F,159,62,Study,4,4,,Study/JOL,"Study Phase2",62,JOL,5,5,"Study Phase2","How likely are you to correctly recall the second item in the pair?|Type your response on a scale from 0-100 and then press Enter.",4002,,,-1,-1,,,,90,5008,595,1038,1,1
M20300117,bk7082kymt,Nick_Dissertation_EX2_EP_MSU_TEXAS,1,119,2022-11-09T00:14:50+00:00,9.8078150749207,15,Pure_Forward.csv,JOLVersionA.csv,"JOL Pure F A","JOL Pure F A",CHERRY,RED,Study2,F,164,91,Study,4,4,,Study/JOL,"Study Phase2",91,JOL,5,5,"Study Phase2","How likely are you to correctly recall the second item in the pair?|Type your response on a scale from 0-100 and then press Enter.",4002,,,-1,-1,,,,95,5007,357,491,1,1
M20300117,bk7082kymt,Nick_Dissertation_EX2_EP_MSU_TEXAS,1,120,2022-11-09T00:15:00+00:00,9.92023396492,15,Pure_Forward.csv,JOLVersionA.csv,"JOL Pure F A","JOL Pure F A",INCENSE,SMELL,Study2,F,170,64,Study,4,4,,Study/JOL,"Study Phase2",64,JOL,5,5,"Study Phase2","How likely are you to correctly recall the second item in the pair?|Type your response on a scale from 0-100 and then press Enter.",4002,,,-1,-1,,,,56,5009,444,567,1,1
M20300117,bk7082kymt,Nick_Dissertation_EX2_EP_MSU_TEXAS,1,121,2022-11-09T00:15:10+00:00,9.9555690288544,15,Pure_Forward.csv,JOLVersionA.csv,"JOL Pure F A","JOL Pure F A",EXTENSION,LONG,Study2,F,156,66,Study,4,4,,Study/JOL,"Study Phase2",66,JOL,5,5,"Study Phase2","How likely are you to correctly recall the second item in the pair?|Type your response on a scale from 0-100 and then press Enter.",4002,,,-1,-1,,,,50,5008,477,611,1,1
M20300117,bk7082kymt,Nick_Dissertation_EX2_EP_MSU_TEXAS,1,122,2022-11-09T00:15:20+00:00,10.478908061981,15,Pure_Forward.csv,JOLVersionA.csv,"JOL Pure F A","JOL Pure F A",FANTASTIC,GREAT,Study2,F,105,89,Study,4,4,,Study/JOL,"Study Phase2",89,JOL,5,5,"Study Phase2","How likely are you to correctly recall the second item in the pair?|Type your response on a scale from 0-100 and then press Enter.",4002,,,-1,-1,,,,100,5008,452,880,1,1
M20300117,bk7082kymt,Nick_Dissertation_EX2_EP_MSU_TEXAS,1,123,2022-11-09T00:15:32+00:00,11.532454013824,15,Pure_Forward.csv,JOLVersionA.csv,"JOL Pure F A","JOL Pure F A",CACTUS,PLANT,Study2,F,158,81,Study,4,4,,Study/JOL,"Study Phase2",81,JOL,5,5,"Study Phase2","How likely are you to correctly recall the second item in the pair?|Type your response on a scale from 0-100 and then press Enter.",4002,,,-1,-1,,,,95,5005,366,490,1,1
M20300117,bk7082kymt,Nick_Dissertation_EX2_EP_MSU_TEXAS,1,124,2022-11-09T00:15:42+00:00,9.8583209514618,15,Pure_Forward.csv,JOLVersionA.csv,"JOL Pure F A","JOL Pure F A",WASP,BUG,Study2,F,102,59,Study,4,4,,Study/JOL,"Study Phase2",59,JOL,5,5,"Study Phase2","How likely are you to correctly recall the second item in the pair?|Type your response on a scale from 0-100 and then press Enter.",4002,,,-1,-1,,,,100,5009,341,737,1,1
M20300117,bk7082kymt,Nick_Dissertation_EX2_EP_MSU_TEXAS,1,125,2022-11-09T00:15:53+00:00,11.267652988434,15,Pure_Forward.csv,JOLVersionA.csv,"JOL Pure F A","JOL Pure F A",PILOT,PLANE,Study2,F,114,93,Study,4,4,,Study/JOL,"Study Phase2",93,JOL,5,5,"Study Phase2","How likely are you to correctly recall the second item in the pair?|Type your response on a scale from 0-100 and then press Enter.",4002,,,-1,-1,,,,78,5009,388,586,1,1
M20300117,bk7082kymt,Nick_Dissertation_EX2_EP_MSU_TEXAS,1,126,2022-11-09T00:16:03+00:00,10.175271987915,15,Pure_Forward.csv,JOLVersionA.csv,"JOL Pure F A","JOL Pure F A",DRIVER,CAR,Study2,F,166,78,Study,4,4,,Study/JOL,"Study Phase2",78,JOL,5,5,"Study Phase2","How likely are you to correctly recall the second item in the pair?|Type your response on a scale from 0-100 and then press Enter.",4001,,,-1,-1,,,,100,5007,430,1087,1,1
M20300117,bk7082kymt,Nick_Dissertation_EX2_EP_MSU_TEXAS,1,127,2022-11-09T00:16:13+00:00,10.154918909073,15,Pure_Forward.csv,JOLVersionA.csv,"JOL Pure F A","JOL Pure F A",CHILI,HOT,Study2,F,107,71,Study,4,4,,Study/JOL,"Study Phase2",71,JOL,5,5,"Study Phase2","How likely are you to correctly recall the second item in the pair?|Type your response on a scale from 0-100 and then press Enter.",4002,,,-1,-1,,,,88,5008,532,746,1,1
M20300117,bk7082kymt,Nick_Dissertation_EX2_EP_MSU_TEXAS,1,128,2022-11-09T00:16:23+00:00,9.9782001972198,15,Pure_Forward.csv,JOLVersionA.csv,"JOL Pure F A","JOL Pure F A",DETECTIVE,MYSTERY,Study2,F,160,85,Study,4,4,,Study/JOL,"Study Phase2",85,JOL,5,5,"Study Phase2","How likely are you to correctly recall the second item in the pair?|Type your response on a scale from 0-100 and then press Enter.",4002,,,-1,-1,,,,98,5008,541,740,1,1
M20300117,bk7082kymt,Nick_Dissertation_EX2_EP_MSU_TEXAS,1,129,2022-11-09T00:16:33+00:00,9.9883658885956,15,Pure_Forward.csv,JOLVersionA.csv,"JOL Pure F A","JOL Pure F A",LITTER,TRASH,Study2,F,163,94,Study,4,4,,Study/JOL,"Study Phase2",94,JOL,5,5,"Study Phase2","How likely are you to correctly recall the second item in the pair?|Type your response on a scale from 0-100 and then press Enter.",4002,,,-1,-1,,,,100,5009,362,905,1,1
M20300117,bk7082kymt,Nick_Dissertation_EX2_EP_MSU_TEXAS,1,130,2022-11-09T00:16:43+00:00,9.8341200351715,15,Pure_Forward.csv,JOLVersionA.csv,"JOL Pure F A","JOL Pure F A",ATTORNEY,LAW,Study2,F,104,80,Study,4,4,,Study/JOL,"Study Phase2",80,JOL,5,5,"Study Phase2","How likely are you to correctly recall the second item in the pair?|Type your response on a scale from 0-100 and then press Enter.",4002,,,-1,-1,,,,46,5009,351,468,1,1
M20300117,bk7082kymt,Nick_Dissertation_EX2_EP_MSU_TEXAS,1,131,2022-11-09T00:16:53+00:00,9.7936410903931,15,Pure_Forward.csv,JOLVersionA.csv,"JOL Pure F A","JOL Pure F A",GROWTH,HEIGHT,Study2,F,100,76,Study,4,4,,Study/JOL,"Study Phase2",76,JOL,5,5,"Study Phase2","How likely are you to correctly recall the second item in the pair?|Type your response on a scale from 0-100 and then press Enter.",4001,,,-1,-1,,,,100,5009,650,1006,1,1
M20300117,bk7082kymt,Nick_Dissertation_EX2_EP_MSU_TEXAS,1,132,2022-11-09T00:17:06+00:00,13.271292924881,15,Pure_Forward.csv,JOLVersionA.csv,"JOL Pure F A","JOL Pure F A",DIVISION,MATH,Study2,F,103,57,Study,4,4,,Study/JOL,"Study Phase2",57,JOL,5,5,"Study Phase2","How likely are you to correctly recall the second item in the pair?|Type your response on a scale from 0-100 and then press Enter.",4003,,,-1,-1,,,,100,5008,343,865,1,1
M20300117,bk7082kymt,Nick_Dissertation_EX2_EP_MSU_TEXAS,1,133,2022-11-09T00:17:17+00:00,10.841279983521,15,Pure_Forward.csv,JOLVersionA.csv,"JOL Pure F A","JOL Pure F A",ADJOURN,END,Study2,F,161,63,Study,4,4,,Study/JOL,"Study Phase2",63,JOL,5,5,"Study Phase2","How likely are you to correctly recall the second item in the pair?|Type your response on a scale from 0-100 and then press Enter.",4002,,,-1,-1,,,,0,5009,1087,1087,1,1
M20300117,bk7082kymt,Nick_Dissertation_EX2_EP_MSU_TEXAS,1,134,2022-11-09T00:17:27+00:00,10.358366012573,15,Pure_Forward.csv,JOLVersionA.csv,"JOL Pure F A","JOL Pure F A",LATCH,KEY,Study2,F,106,95,Study,4,4,,Study/JOL,"Study Phase2",95,JOL,5,5,"Study Phase2","How likely are you to correctly recall the second item in the pair?|Type your response on a scale from 0-100 and then press Enter.",4002,,,-1,-1,,,,80,5009,478,1266,1,1
M20300117,bk7082kymt,Nick_Dissertation_EX2_EP_MSU_TEXAS,1,135,2022-11-09T00:17:37+00:00,9.8627600669861,15,Pure_Forward.csv,JOLVersionA.csv,"JOL Pure F A","JOL Pure F A",AFFECTION,LOVE,Study2,F,175,82,Study,4,4,,Study/JOL,"Study Phase2",82,JOL,5,5,"Study Phase2","How likely are you to correctly recall the second item in the pair?|Type your response on a scale from 0-100 and then press Enter.",4002,,,-1,-1,,,,100,5008,559,1015,1,1
M20300117,bk7082kymt,Nick_Dissertation_EX2_EP_MSU_TEXAS,1,136,2022-11-09T00:17:48+00:00,10.589746952057,15,Pure_Forward.csv,JOLVersionA.csv,"JOL Pure F A","JOL Pure F A",ATTIRE,CLOTHES,Study2,F,113,60,Study,4,4,,Study/JOL,"Study Phase2",60,JOL,5,5,"Study Phase2","How likely are you to correctly recall the second item in the pair?|Type your response on a scale from 0-100 and then press Enter.",4002,,,-1,-1,,,,70,5013,494,624,1,1
M20300117,bk7082kymt,Nick_Dissertation_EX2_EP_MSU_TEXAS,1,137,2022-11-09T00:17:58+00:00,10.284255027771,15,Pure_Forward.csv,JOLVersionA.csv,"JOL Pure F A","JOL Pure F A",SCALP,HEAD,Study2,F,165,87,Study,4,4,,Study/JOL,"Study Phase2",87,JOL,5,5,"Study Phase2","How likely are you to correctly recall the second item in the pair?|Type your response on a scale from 0-100 and then press Enter.",4002,,,-1,-1,,,,100,5008,379,1013,1,1
M20300117,bk7082kymt,Nick_Dissertation_EX2_EP_MSU_TEXAS,1,138,2022-11-09T00:18:08+00:00,10.250624895096,15,Pure_Forward.csv,JOLVersionA.csv,"JOL Pure F A","JOL Pure F A",SEIZE,TAKE,Study2,F,99,79,Study,4,4,,Study/JOL,"Study Phase2",79,JOL,5,5,"Study Phase2","How likely are you to correctly recall the second item in the pair?|Type your response on a scale from 0-100 and then press Enter.",4002,,,-1,-1,,,,85,5008,824,1402,1,1
M20300117,bk7082kymt,Nick_Dissertation_EX2_EP_MSU_TEXAS,1,139,2022-11-09T00:18:18+00:00,10.247909069061,15,Pure_Forward.csv,JOLVersionA.csv,"JOL Pure F A","JOL Pure F A",DROWSY,SLEEP,Study2,F,111,61,Study,4,4,,Study/JOL,"Study Phase2",61,JOL,5,5,"Study Phase2","How likely are you to correctly recall the second item in the pair?|Type your response on a scale from 0-100 and then press Enter.",4002,,,-1,-1,,,,100,5008,445,899,1,1
M20300117,bk7082kymt,Nick_Dissertation_EX2_EP_MSU_TEXAS,1,140,2022-11-09T00:18:29+00:00,10.238776922226,15,Pure_Forward.csv,JOLVersionA.csv,"JOL Pure F A","JOL Pure F A",WASP,BUG,Study2,F,102,59,Study,4,4,,Study/JOL,"Study Phase2",59,JOL,5,5,"Study Phase2","How likely are you to correctly recall the second item in the pair?|Type your response on a scale from 0-100 and then press Enter.",4002,,,-1,-1,,,,100,5008,674,1034,1,1
M20300117,bk7082kymt,Nick_Dissertation_EX2_EP_MSU_TEXAS,1,141,2022-11-09T00:18:39+00:00,10.625802993774,15,Pure_Forward.csv,JOLVersionA.csv,"JOL Pure F A","JOL Pure F A",RACKET,BALL,Study2,F,108,70,Study,4,4,,Study/JOL,"Study Phase2",70,JOL,5,5,"Study Phase2","How likely are you to correctly recall the second item in the pair?|Type your response on a scale from 0-100 and then press Enter.",4001,,,-1,-1,,,,79,5008,306,394,1,1
M20300117,bk7082kymt,Nick_Dissertation_EX2_EP_MSU_TEXAS,1,142,2022-11-09T00:18:52+00:00,12.235636949539,15,Pure_Forward.csv,JOLVersionA.csv,"JOL Pure F A","JOL Pure F A",CHOP,CUT,Study2,F,167,92,Study,4,4,,Study/JOL,"Study Phase2",92,JOL,5,5,"Study Phase2","How likely are you to correctly recall the second item in the pair?|Type your response on a scale from 0-100 and then press Enter.",4002,,,-1,-1,,,,90,5013,344,567,1,1
M20300117,bk7082kymt,Nick_Dissertation_EX2_EP_MSU_TEXAS,1,143,2022-11-09T00:19:01+00:00,9.9577031135559,15,Pure_Forward.csv,JOLVersionA.csv,"JOL Pure F A","JOL Pure F A",AIRCRAFT,PLANE,Study1,F,79,23,Study,4,4,,Study/JOL,"Study Phase2",23,JOL,5,5,"Study Phase2","How likely are you to correctly recall the second item in the pair?|Type your response on a scale from 0-100 and then press Enter.",4001,,,-1,-1,,,,100,5009,340,723,1,1
M20300117,bk7082kymt,Nick_Dissertation_EX2_EP_MSU_TEXAS,1,144,2022-11-09T00:19:13+00:00,11.097737073898,15,Pure_Forward.csv,JOLVersionA.csv,"JOL Pure F A","JOL Pure F A",SIP,DRINK,Study2,F,97,73,Study,4,4,,Study/JOL,"Study Phase2",73,JOL,5,5,"Study Phase2","How likely are you to correctly recall the second item in the pair?|Type your response on a scale from 0-100 and then press Enter.",4002,,,-1,-1,,,,100,5008,410,4853,1,1
M20300117,bk7082kymt,Nick_Dissertation_EX2_EP_MSU_TEXAS,1,145,2022-11-09T00:19:23+00:00,10.609196901321,15,Pure_Forward.csv,JOLVersionA.csv,"JOL Pure F A","JOL Pure F A",CAVE,DARK,Study2,F,98,86,Study,4,4,,Study/JOL,"Study Phase2",86,JOL,5,5,"Study Phase2","How likely are you to correctly recall the second item in the pair?|Type your response on a scale from 0-100 and then press Enter.",4002,,,-1,-1,,,,80,5008,443,1152,1,1
M20300117,bk7082kymt,Nick_Dissertation_EX2_EP_MSU_TEXAS,1,146,2022-11-09T00:19:35+00:00,12.252139091492,15,Pure_Forward.csv,JOLVersionA.csv,"JOL Pure F A","JOL Pure F A",FURRY,DOG,Study2,F,162,69,Study,4,4,,Study/JOL,"Study Phase2",69,JOL,5,5,"Study Phase2","How likely are you to correctly recall the second item in the pair?|Type your response on a scale from 0-100 and then press Enter.",4001,,,-1,-1,,,,76,5011,501,623,1,1
M20300117,bk7082kymt,Nick_Dissertation_EX2_EP_MSU_TEXAS,1,147,2022-11-09T00:19:47+00:00,11.98445892334,15,Pure_Forward.csv,JOLVersionA.csv,"JOL Pure F A","JOL Pure F A",OCTOBER,SPOOKY,BUFFER4,Buffer,180,100,Study,4,4,,Study/JOL,BUFFER4,100,JOL,5,5,BUFFER4,"How likely are you to correctly recall the second item in the pair?|Type your response on a scale from 0-100 and then press Enter.",4002,,,-1,-1,,,,98,5008,519,792,1,1
M20300117,bk7082kymt,Nick_Dissertation_EX2_EP_MSU_TEXAS,1,148,2022-11-09T00:19:58+00:00,10.93542599678,15,Pure_Forward.csv,JOLVersionA.csv,"JOL Pure F A","JOL Pure F A",TOOL,SHED,BUFFER4,Buffer,178,101,Study,4,4,,Study/JOL,BUFFER4,101,JOL,5,5,BUFFER4,"How likely are you to correctly recall the second item in the pair?|Type your response on a scale from 0-100 and then press Enter.",4001,,,-1,-1,,,,69,5008,627,744,1,1
M20300117,bk7082kymt,Nick_Dissertation_EX2_EP_MSU_TEXAS,1,149,2022-11-09T00:20:09+00:00,10.904938936234,15,Pure_Forward.csv,JOLVersionA.csv,"JOL Pure F A","JOL Pure F A",MONTH,YEAR,BUFFER4,Buffer,177,97,Study,4,4,,Study/JOL,BUFFER4,97,JOL,5,5,BUFFER4,"How likely are you to correctly recall the second item in the pair?|Type your response on a scale from 0-100 and then press Enter.",4002,,,-1,-1,,,,100,5010,458,944,1,1
M20300117,bk7082kymt,Nick_Dissertation_EX2_EP_MSU_TEXAS,1,150,2022-11-09T00:20:21+00:00,11.383303165436,15,Pure_Forward.csv,JOLVersionA.csv,"JOL Pure F A","JOL Pure F A",DAYS,WEEKS,BUFFER4,Buffer,176,99,Study,4,4,,Study/JOL,BUFFER4,99,JOL,5,5,BUFFER4,"How likely are you to correctly recall the second item in the pair?|Type your response on a scale from 0-100 and then press Enter.",4002,,,-1,-1,,,,100,5008,478,1044,1,1
M20300117,bk7082kymt,Nick_Dissertation_EX2_EP_MSU_TEXAS,1,151,2022-11-09T00:20:35+00:00,14.776826858521,15,Pure_Forward.csv,JOLVersionA.csv,"JOL Pure F A","JOL Pure F A",SPRING,MARCH,BUFFER4,Buffer,179,98,Study,4,4,,Study/JOL,BUFFER4,98,JOL,5,5,BUFFER4,"How likely are you to correctly recall the second item in the pair?|Type your response on a scale from 0-100 and then press Enter.",4002,,,-1,-1,,,,100,5008,427,1036,1,1
M20300117,bk7082kymt,Nick_Dissertation_EX2_EP_MSU_TEXAS,1,152,2022-11-09T00:21:16+00:00,40.156929016113,15,Pure_Forward.csv,JOLVersionA.csv,"JOL Pure F A","JOL Pure F A",,,,,,0,Instruct,User,-,"You have completed this section. Please press Enter.",Filler_Instruction,Instruct5,,No,,,,,39680,,,-1,-1,,,,,,,,1,
M20300117,bk7082kymt,Nick_Dissertation_EX2_EP_MSU_TEXAS,1,153,2022-11-09T00:23:16+00:00,120.43592095375,15,Pure_Forward.csv,JOLVersionA.csv,"JOL Pure F A","JOL Pure F A",,,,,,0,FreeRecall,120,120,"Please list the 50 US states in reverse alphabetical order (z - a). The task will automatically advance to the next screen after two minutes.",,Filler2,,No,,,,,120002,"Wyoming Wisconsin west virginia Washington virginia Vermont Utah texas Tennessee South Dakota South Carolina Rhode Island Pennsylvania oregon ",0,16749,115149,0,0,,,,,,1,
M20300117,bk7082kymt,Nick_Dissertation_EX2_EP_MSU_TEXAS,1,154,2022-11-09T00:23:32+00:00,15.939275026321,15,Pure_Forward.csv,JOLVersionA.csv,"JOL Pure F A","JOL Pure F A",,,,,,0,Instruct,-,10,"You will now be presented with the first word from each of the previously studied item pairs. Please type the missing word. If you do not know the word, you may guess or press Enter to skip forward to the next pair.",,Instruct6,,No,,,,,15517,,,-1,-1,,,,,,,,1,
M20300117,bk7082kymt,Nick_Dissertation_EX2_EP_MSU_TEXAS,1,155,2022-11-09T00:23:35+00:00,3.0011920928955,15,Pure_Forward.csv,JOLVersionA.csv,"JOL Pure F A","JOL Pure F A",CAVE,DARK,Study2,F,98,86,Test,User,-,,Recall,Recall2,,No,,,,,2772,dark,100,1585,2422,1,1,,,,,,1,
M20300117,bk7082kymt,Nick_Dissertation_EX2_EP_MSU_TEXAS,1,156,2022-11-09T00:23:38+00:00,2.95876288414,15,Pure_Forward.csv,JOLVersionA.csv,"JOL Pure F A","JOL Pure F A",SIP,DRINK,Study2,F,97,73,Test,User,-,,Recall,Recall2,,No,,,,,2701,drinl,80,962,2420,0,1,,,,,,1,
M20300117,bk7082kymt,Nick_Dissertation_EX2_EP_MSU_TEXAS,1,157,2022-11-09T00:23:42+00:00,3.713790178299,15,Pure_Forward.csv,JOLVersionA.csv,"JOL Pure F A","JOL Pure F A",INCENSE,SMELL,Study2,F,170,64,Test,User,-,,Recall,Recall2,,No,,,,,3477,,0,-1,-1,0,0,,,,,,1,
M20300117,bk7082kymt,Nick_Dissertation_EX2_EP_MSU_TEXAS,1,158,2022-11-09T00:23:45+00:00,3.6829168796539,15,Pure_Forward.csv,JOLVersionA.csv,"JOL Pure F A","JOL Pure F A",ATTIRE,CLOTHES,Study2,F,113,60,Test,User,-,,Recall,Recall2,,No,,,,,3464,clothes,100,1881,3212,1,1,,,,,,1,
M20300117,bk7082kymt,Nick_Dissertation_EX2_EP_MSU_TEXAS,1,159,2022-11-09T00:23:48+00:00,2.2984759807587,15,Pure_Forward.csv,JOLVersionA.csv,"JOL Pure F A","JOL Pure F A",BLAZE,FIRE,Study2,F,115,77,Test,User,-,,Recall,Recall2,,No,,,,,2095,,0,-1,-1,0,0,,,,,,1,
M20300117,bk7082kymt,Nick_Dissertation_EX2_EP_MSU_TEXAS,1,160,2022-11-09T00:23:49+00:00,1.8576691150665,15,Pure_Forward.csv,JOLVersionA.csv,"JOL Pure F A","JOL Pure F A",CHERRY,RED,Study2,F,164,91,Test,User,-,,Recall,Recall2,,No,,,,,1613,red,100,1024,1426,1,1,,,,,,1,
M20300117,bk7082kymt,Nick_Dissertation_EX2_EP_MSU_TEXAS,1,161,2022-11-09T00:23:54+00:00,4.7279939651489,15,Pure_Forward.csv,JOLVersionA.csv,"JOL Pure F A","JOL Pure F A",EXTENSION,LONG,Study2,F,156,66,Test,User,-,,Recall,Recall2,,No,,,,,4261,cord,25,2348,3957,0,0,,,,,,1,
M20300117,bk7082kymt,Nick_Dissertation_EX2_EP_MSU_TEXAS,1,162,2022-11-09T00:23:59+00:00,4.6807458400726,15,Pure_Forward.csv,JOLVersionA.csv,"JOL Pure F A","JOL Pure F A",LITTER,TRASH,Study2,F,163,94,Test,User,-,,Recall,Recall2,,No,,,,,3979,trash,100,2680,3610,1,1,,,,,,1,
M20300117,bk7082kymt,Nick_Dissertation_EX2_EP_MSU_TEXAS,1,163,2022-11-09T00:24:02+00:00,3.3533132076263,15,Pure_Forward.csv,JOLVersionA.csv,"JOL Pure F A","JOL Pure F A",DRIVER,CAR,Study2,F,166,78,Test,User,-,,Recall,Recall2,,No,,,,,3127,car,100,978,1880,1,1,,,,,,1,
M20300117,bk7082kymt,Nick_Dissertation_EX2_EP_MSU_TEXAS,1,164,2022-11-09T00:24:07+00:00,4.8010008335114,15,Pure_Forward.csv,JOLVersionA.csv,"JOL Pure F A","JOL Pure F A",DETECTIVE,MYSTERY,Study2,F,160,85,Test,User,-,,Recall,Recall2,,No,,,,,4429,investiagte,33.333333333333,1570,3969,0,0,,,,,,1,
M20300117,bk7082kymt,Nick_Dissertation_EX2_EP_MSU_TEXAS,1,165,2022-11-09T00:24:10+00:00,3.2578110694885,15,Pure_Forward.csv,JOLVersionA.csv,"JOL Pure F A","JOL Pure F A",ADJOURN,END,Study2,F,161,63,Test,User,-,,Recall,Recall2,,No,,,,,3046,,0,-1,-1,0,0,,,,,,1,
M20300117,bk7082kymt,Nick_Dissertation_EX2_EP_MSU_TEXAS,1,166,2022-11-09T00:24:13+00:00,2.6266849040985,15,Pure_Forward.csv,JOLVersionA.csv,"JOL Pure F A","JOL Pure F A",CLUE,GAME,Study2,F,157,90,Test,User,-,,Recall,Recall2,,No,,,,,2403,game,100,1618,2136,1,1,,,,,,1,
M20300117,bk7082kymt,Nick_Dissertation_EX2_EP_MSU_TEXAS,1,167,2022-11-09T00:24:16+00:00,2.7185270786285,15,Pure_Forward.csv,JOLVersionA.csv,"JOL Pure F A","JOL Pure F A",DROWSY,SLEEP,Study2,F,111,61,Test,User,-,,Recall,Recall2,,No,,,,,2495,sleep,100,1373,2042,1,1,,,,,,1,
M20300117,bk7082kymt,Nick_Dissertation_EX2_EP_MSU_TEXAS,1,168,2022-11-09T00:24:22+00:00,6.4112780094147,15,Pure_Forward.csv,JOLVersionA.csv,"JOL Pure F A","JOL Pure F A",WORD,SENTENCE,Study2,F,101,75,Test,User,-,,Recall,Recall2,,No,,,,,6023,sentence,100,1884,3312,1,1,,,,,,1,
M20300117,bk7082kymt,Nick_Dissertation_EX2_EP_MSU_TEXAS,1,169,2022-11-09T00:24:25+00:00,2.5845470428467,15,Pure_Forward.csv,JOLVersionA.csv,"JOL Pure F A","JOL Pure F A",SCALP,HEAD,Study2,F,165,87,Test,User,-,,Recall,Recall2,,No,,,,,2340,head,100,1130,1768,1,1,,,,,,1,
M20300117,bk7082kymt,Nick_Dissertation_EX2_EP_MSU_TEXAS,1,170,2022-11-09T00:24:29+00:00,4.7410409450531,15,Pure_Forward.csv,JOLVersionA.csv,"JOL Pure F A","JOL Pure F A",FANTASTIC,GREAT,Study2,F,105,89,Test,User,-,,Recall,Recall2,,No,,,,,4386,best,44.444444444444,3513,4171,0,0,,,,,,1,
M20300117,bk7082kymt,Nick_Dissertation_EX2_EP_MSU_TEXAS,1,171,2022-11-09T00:24:32+00:00,3.1328530311584,15,Pure_Forward.csv,JOLVersionA.csv,"JOL Pure F A","JOL Pure F A",ATTORNEY,LAW,Study2,F,104,80,Test,User,-,,Recall,Recall2,,No,,,,,2879,law,100,2243,2672,1,1,,,,,,1,
M20300117,bk7082kymt,Nick_Dissertation_EX2_EP_MSU_TEXAS,1,172,2022-11-09T00:24:36+00:00,3.5375599861145,15,Pure_Forward.csv,JOLVersionA.csv,"JOL Pure F A","JOL Pure F A",DIVISION,MATH,Study2,F,103,57,Test,User,-,,Recall,Recall2,,No,,,,,3277,math,100,2133,2819,1,1,,,,,,1,
M20300117,bk7082kymt,Nick_Dissertation_EX2_EP_MSU_TEXAS,1,173,2022-11-09T00:24:39+00:00,3.0641939640045,15,Pure_Forward.csv,JOLVersionA.csv,"JOL Pure F A","JOL Pure F A",CACTUS,PLANT,Study2,F,158,81,Test,User,-,,Recall,Recall2,,No,,,,,2846,plant,100,1584,2367,1,1,,,,,,1,
M20300117,bk7082kymt,Nick_Dissertation_EX2_EP_MSU_TEXAS,1,174,2022-11-09T00:24:43+00:00,4.1429381370544,15,Pure_Forward.csv,JOLVersionA.csv,"JOL Pure F A","JOL Pure F A",WASP,BUG,Study2,F,102,59,Test,User,-,,Recall,Recall2,,No,,,,,3888,stung,50,1928,3590,0,0,,,,,,1,
M20300117,bk7082kymt,Nick_Dissertation_EX2_EP_MSU_TEXAS,1,175,2022-11-09T00:24:46+00:00,2.3066029548645,15,Pure_Forward.csv,JOLVersionA.csv,"JOL Pure F A","JOL Pure F A",FAMINE,HUNGER,Study2,F,110,88,Test,User,-,,Recall,Recall2,,No,,,,,1972,,0,-1,-1,0,0,,,,,,1,
M20300117,bk7082kymt,Nick_Dissertation_EX2_EP_MSU_TEXAS,1,176,2022-11-09T00:24:48+00:00,2.6219928264618,15,Pure_Forward.csv,JOLVersionA.csv,"JOL Pure F A","JOL Pure F A",AFFECTION,LOVE,Study2,F,175,82,Test,User,-,,Recall,Recall2,,No,,,,,2296,love,100,1248,2037,1,1,,,,,,1,
M20300117,bk7082kymt,Nick_Dissertation_EX2_EP_MSU_TEXAS,1,177,2022-11-09T00:24:51+00:00,2.7216291427612,15,Pure_Forward.csv,JOLVersionA.csv,"JOL Pure F A","JOL Pure F A",DINE,EAT,Study2,F,171,96,Test,User,-,,Recall,Recall2,,No,,,,,2330,eat,100,1288,1879,1,1,,,,,,1,
M20300117,bk7082kymt,Nick_Dissertation_EX2_EP_MSU_TEXAS,1,178,2022-11-09T00:24:53+00:00,2.5242300033569,15,Pure_Forward.csv,JOLVersionA.csv,"JOL Pure F A","JOL Pure F A",FEUD,FIGHT,Study2,F,173,72,Test,User,-,,Recall,Recall2,,No,,,,,2251,,0,-1,-1,0,0,,,,,,1,
M20300117,bk7082kymt,Nick_Dissertation_EX2_EP_MSU_TEXAS,1,179,2022-11-09T00:24:56+00:00,2.8717730045319,15,Pure_Forward.csv,JOLVersionA.csv,"JOL Pure F A","JOL Pure F A",RACKET,BALL,Study2,F,108,70,Test,User,-,,Recall,Recall2,,No,,,,,2616,ball,100,1403,2022,1,1,,,,,,1,
M20300117,bk7082kymt,Nick_Dissertation_EX2_EP_MSU_TEXAS,1,180,2022-11-09T00:25:01+00:00,4.5426299571991,15,Pure_Forward.csv,JOLVersionA.csv,"JOL Pure F A","JOL Pure F A",MULE,DONKEY,Study2,F,168,65,Test,User,-,,Recall,Recall2,,No,,,,,4163,donkey,100,2608,3686,1,1,,,,,,1,
M20300117,bk7082kymt,Nick_Dissertation_EX2_EP_MSU_TEXAS,1,181,2022-11-09T00:25:03+00:00,1.8037049770355,15,Pure_Forward.csv,JOLVersionA.csv,"JOL Pure F A","JOL Pure F A",SHOELACE,TIE,Study2,F,159,62,Test,User,-,,Recall,Recall2,,No,,,,,1599,t,50,1316,1316,0,0,,,,,,1,
M20300117,bk7082kymt,Nick_Dissertation_EX2_EP_MSU_TEXAS,1,182,2022-11-09T00:25:11+00:00,8.069235086441,15,Pure_Forward.csv,JOLVersionA.csv,"JOL Pure F A","JOL Pure F A",CHOP,CUT,Study2,F,167,92,Test,User,-,,Recall,Recall2,,No,,,,,7667,eat,33.333333333333,5867,7403,0,0,,,,,,1,
M20300117,bk7082kymt,Nick_Dissertation_EX2_EP_MSU_TEXAS,1,183,2022-11-09T00:25:13+00:00,2.7848298549652,15,Pure_Forward.csv,JOLVersionA.csv,"JOL Pure F A","JOL Pure F A",AIRCRAFT,PLANE,Study1,F,79,23,Test,User,-,,Recall,Recall2,,No,,,,,2575,plane,100,1104,2169,1,1,,,,,,1,
M20300117,bk7082kymt,Nick_Dissertation_EX2_EP_MSU_TEXAS,1,184,2022-11-09T00:25:16+00:00,2.6185040473938,15,Pure_Forward.csv,JOLVersionA.csv,"JOL Pure F A","JOL Pure F A",CHORE,WORK,Study2,F,109,74,Test,User,-,,Recall,Recall2,,No,,,,,2393,work,100,1539,2107,1,1,,,,,,1,
M20300117,bk7082kymt,Nick_Dissertation_EX2_EP_MSU_TEXAS,1,185,2022-11-09T00:25:19+00:00,3.1932051181793,15,Pure_Forward.csv,JOLVersionA.csv,"JOL Pure F A","JOL Pure F A",ENOUGH,FULL,Study2,F,96,68,Test,User,-,,Recall,Recall2,,No,,,,,2873,full,100,1662,2624,1,1,,,,,,1,
M20300117,bk7082kymt,Nick_Dissertation_EX2_EP_MSU_TEXAS,1,186,2022-11-09T00:25:22+00:00,2.3164298534393,15,Pure_Forward.csv,JOLVersionA.csv,"JOL Pure F A","JOL Pure F A",CHILI,HOT,Study2,F,107,71,Test,User,-,,Recall,Recall2,,No,,,,,2101,hot,100,1487,1890,1,1,,,,,,1,
M20300117,bk7082kymt,Nick_Dissertation_EX2_EP_MSU_TEXAS,1,187,2022-11-09T00:25:25+00:00,3.0838730335236,15,Pure_Forward.csv,JOLVersionA.csv,"JOL Pure F A","JOL Pure F A",FURRY,DOG,Study2,F,162,69,Test,User,-,,Recall,Recall2,,No,,,,,2754,dog,100,2057,2491,1,1,,,,,,1,
M20300117,bk7082kymt,Nick_Dissertation_EX2_EP_MSU_TEXAS,1,188,2022-11-09T00:25:27+00:00,2.2563009262085,15,Pure_Forward.csv,JOLVersionA.csv,"JOL Pure F A","JOL Pure F A",SEIZE,TAKE,Study2,F,99,79,Test,User,-,,Recall,Recall2,,No,,,,,1948,,0,-1,-1,0,0,,,,,,1,
M20300117,bk7082kymt,Nick_Dissertation_EX2_EP_MSU_TEXAS,1,189,2022-11-09T00:25:29+00:00,2.145583152771,15,Pure_Forward.csv,JOLVersionA.csv,"JOL Pure F A","JOL Pure F A",SHEARS,SCISSORS,Study2,F,172,67,Test,User,-,,Recall,Recall2,,No,,,,,1903,,0,-1,-1,0,0,,,,,,1,
M20300117,bk7082kymt,Nick_Dissertation_EX2_EP_MSU_TEXAS,1,190,2022-11-09T00:25:34+00:00,4.7560069561005,15,Pure_Forward.csv,JOLVersionA.csv,"JOL Pure F A","JOL Pure F A",WASP,BUG,Study2,F,102,59,Test,User,-,,Recall,Recall2,,No,,,,,4126,stung,50,1640,3881,0,0,,,,,,1,
M20300117,bk7082kymt,Nick_Dissertation_EX2_EP_MSU_TEXAS,1,191,2022-11-09T00:25:38+00:00,4.5967299938202,15,Pure_Forward.csv,JOLVersionA.csv,"JOL Pure F A","JOL Pure F A",PILOT,PLANE,Study2,F,114,93,Test,User,-,,Recall,Recall2,,No,,,,,4102,plane,100,1104,3267,1,1,,,,,,1,
M20300117,bk7082kymt,Nick_Dissertation_EX2_EP_MSU_TEXAS,1,192,2022-11-09T00:25:40+00:00,1.862596988678,15,Pure_Forward.csv,JOLVersionA.csv,"JOL Pure F A","JOL Pure F A",STENCH,SMELL,Study2,F,112,84,Test,User,-,,Recall,Recall2,,No,,,,,1502,,0,-1,-1,0,0,,,,,,1,
M20300117,bk7082kymt,Nick_Dissertation_EX2_EP_MSU_TEXAS,1,193,2022-11-09T00:25:42+00:00,1.6783881187439,15,Pure_Forward.csv,JOLVersionA.csv,"JOL Pure F A","JOL Pure F A",LATCH,KEY,Study2,F,106,95,Test,User,-,,Recall,Recall2,,No,,,,,1449,,0,-1,-1,0,0,,,,,,1,
M20300117,bk7082kymt,Nick_Dissertation_EX2_EP_MSU_TEXAS,1,194,2022-11-09T00:25:47+00:00,4.5168359279633,15,Pure_Forward.csv,JOLVersionA.csv,"JOL Pure F A","JOL Pure F A",GROWTH,HEIGHT,Study2,F,100,76,Test,User,-,,Recall,Recall2,,No,,,,,4076,height,100,1354,3681,1,1,,,,,,1,
M20300117,bk7082kymt,Nick_Dissertation_EX2_EP_MSU_TEXAS,1,195,2022-11-09T00:25:49+00:00,2.8894159793854,15,Pure_Forward.csv,JOLVersionA.csv,"JOL Pure F A","JOL Pure F A",,,,,,0,Instruct,User,-,"You have completed this section. Please press Enter.",,Instruct7,,No,,,,,2690,,,-1,-1,,,,,,,,1,
M20300117,bk7082kymt,Nick_Dissertation_EX2_EP_MSU_TEXAS,1,196,2022-11-09T00:25:55+00:00,6.0566549301147,15,Pure_Forward.csv,JOLVersionA.csv,"JOL Pure F A","JOL Pure F A",,,,,,0,Instruct,User,-,"The following screen will ask you a few questions abour your experience today. You must complete these questions to receive credit.",,Instruct8,,No,,,,,5122,,,-1,-1,,,,,,,,1,
