Username,ID,ExperimentName,Session,Trial,Date,TimeDif,"Condition Number","Stimuli File","Order File","Condition Description","Condition Notes",Stimuli*Cue,Stimuli*Answer,Stimuli*Shuffle,"Stimuli*Stimuli Notes",Stimuli*Value,Procedure*Item,"Procedure*Trial Type","Procedure*Max Time","Procedure*Min Time",Procedure*Text,"Procedure*Procedure Notes",Procedure*Shuffle,Response*RT,Response*Response,Response*Accuracy,Response*RTfirst,Response*RTlast,Response*strictAcc,Response*lenientAcc,Response*focus,Response*Focus
10106849,ywwqm2xl02,Nick_Dissertation_EX2_EP,1,1,2022-02-25T17:11:30+00:00,11.552076101303,4,Pure_Forward.csv,READVersionB.csv,"Read Pure F B","Read Pure F B",,,,,,0,Instruct,-,10,"Please study each of the following word pairs. Remember that your memory will be tested! Each pair will be displayed on the computer screen and will automatically advance to the next pair. Press ENTER when you are ready to begin.",Initial_Instruct,Instruct1,11459,,,-1,-1,,,,1
10106849,ywwqm2xl02,Nick_Dissertation_EX2_EP,1,2,2022-02-25T17:11:39+00:00,8.245612859726,4,Pure_Forward.csv,READVersionB.csv,"Read Pure F B","Read Pure F B",CARROT,POTATO,BUFFER3,Buffer,91,56,STUDY,8,8,,Study/JOL,BUFFER,8001,,,-1,-1,,,,1
10106849,ywwqm2xl02,Nick_Dissertation_EX2_EP,1,3,2022-02-25T17:11:47+00:00,8.1148262023926,4,Pure_Forward.csv,READVersionB.csv,"Read Pure F B","Read Pure F B",CAMP,ADVENTURE,BUFFER3,Buffer,95,55,STUDY,8,8,,Study/JOL,BUFFER,8002,,,-1,-1,,,,1
10106849,ywwqm2xl02,Nick_Dissertation_EX2_EP,1,4,2022-02-25T17:11:55+00:00,8.1237378120422,4,Pure_Forward.csv,READVersionB.csv,"Read Pure F B","Read Pure F B",SHRIMP,FISH,BUFFER3,Buffer,93,54,STUDY,8,8,,Study/JOL,BUFFER,8001,,,-1,-1,,,,1
10106849,ywwqm2xl02,Nick_Dissertation_EX2_EP,1,5,2022-02-25T17:12:03+00:00,8.1141681671143,4,Pure_Forward.csv,READVersionB.csv,"Read Pure F B","Read Pure F B",ICE,FROZEN,BUFFER3,Buffer,94,52,STUDY,8,8,,Study/JOL,BUFFER,8002,,,-1,-1,,,,1
10106849,ywwqm2xl02,Nick_Dissertation_EX2_EP,1,6,2022-02-25T17:12:11+00:00,8.1099789142609,4,Pure_Forward.csv,READVersionB.csv,"Read Pure F B","Read Pure F B",NOODLE,STRING,BUFFER3,Buffer,92,53,STUDY,8,8,,Study/JOL,BUFFER,8001,,,-1,-1,,,,1
10106849,ywwqm2xl02,Nick_Dissertation_EX2_EP,1,7,2022-02-25T17:12:19+00:00,8.1145429611206,4,Pure_Forward.csv,READVersionB.csv,"Read Pure F B","Read Pure F B",MULE,DONKEY,Study2,F,168,84,STUDY,8,8,,Study/JOL,"Study Phase",8000,,,-1,-1,,,,1
10106849,ywwqm2xl02,Nick_Dissertation_EX2_EP,1,8,2022-02-25T17:12:27+00:00,8.1201529502869,4,Pure_Forward.csv,READVersionB.csv,"Read Pure F B","Read Pure F B",CAVE,DARK,Study2,F,98,71,STUDY,8,8,,Study/JOL,"Study Phase",8001,,,-1,-1,,,,1
10106849,ywwqm2xl02,Nick_Dissertation_EX2_EP,1,9,2022-02-25T17:12:35+00:00,8.1080281734467,4,Pure_Forward.csv,READVersionB.csv,"Read Pure F B","Read Pure F B",BLAZE,FIRE,Study2,F,115,92,STUDY,8,8,,Study/JOL,"Study Phase",8000,,,-1,-1,,,,1
10106849,ywwqm2xl02,Nick_Dissertation_EX2_EP,1,10,2022-02-25T17:12:43+00:00,8.119069814682,4,Pure_Forward.csv,READVersionB.csv,"Read Pure F B","Read Pure F B",WORD,SENTENCE,Study2,F,101,79,STUDY,8,8,,Study/JOL,"Study Phase",8000,,,-1,-1,,,,1
10106849,ywwqm2xl02,Nick_Dissertation_EX2_EP,1,11,2022-02-25T17:12:52+00:00,8.2355051040649,4,Pure_Forward.csv,READVersionB.csv,"Read Pure F B","Read Pure F B",FANTASTIC,GREAT,Study2,F,105,70,STUDY,8,8,,Study/JOL,"Study Phase",8001,,,-1,-1,,,,1
10106849,ywwqm2xl02,Nick_Dissertation_EX2_EP,1,12,2022-02-25T17:13:00+00:00,8.1149609088898,4,Pure_Forward.csv,READVersionB.csv,"Read Pure F B","Read Pure F B",CACTUS,PLANT,Study2,F,158,78,STUDY,8,8,,Study/JOL,"Study Phase",8002,,,-1,-1,,,,1
10106849,ywwqm2xl02,Nick_Dissertation_EX2_EP,1,13,2022-02-25T17:13:08+00:00,8.1188311576843,4,Pure_Forward.csv,READVersionB.csv,"Read Pure F B","Read Pure F B",RACKET,BALL,Study2,F,108,67,STUDY,8,8,,Study/JOL,"Study Phase",8001,,,-1,-1,,,,1
10106849,ywwqm2xl02,Nick_Dissertation_EX2_EP,1,14,2022-02-25T17:13:16+00:00,8.1194670200348,4,Pure_Forward.csv,READVersionB.csv,"Read Pure F B","Read Pure F B",ADJOURN,END,Study2,F,161,59,STUDY,8,8,,Study/JOL,"Study Phase",8001,,,-1,-1,,,,1
10106849,ywwqm2xl02,Nick_Dissertation_EX2_EP,1,15,2022-02-25T17:13:24+00:00,8.1156718730927,4,Pure_Forward.csv,READVersionB.csv,"Read Pure F B","Read Pure F B",INCENSE,SMELL,Study2,F,170,87,STUDY,8,8,,Study/JOL,"Study Phase",8000,,,-1,-1,,,,1
10106849,ywwqm2xl02,Nick_Dissertation_EX2_EP,1,16,2022-02-25T17:13:32+00:00,8.1173169612885,4,Pure_Forward.csv,READVersionB.csv,"Read Pure F B","Read Pure F B",SIP,DRINK,Study2,F,97,96,STUDY,8,8,,Study/JOL,"Study Phase",8001,,,-1,-1,,,,1
10106849,ywwqm2xl02,Nick_Dissertation_EX2_EP,1,17,2022-02-25T17:13:40+00:00,8.1171970367432,4,Pure_Forward.csv,READVersionB.csv,"Read Pure F B","Read Pure F B",AFFECTION,LOVE,Study2,F,175,57,STUDY,8,8,,Study/JOL,"Study Phase",8002,,,-1,-1,,,,1
10106849,ywwqm2xl02,Nick_Dissertation_EX2_EP,1,18,2022-02-25T17:13:49+00:00,8.1213290691376,4,Pure_Forward.csv,READVersionB.csv,"Read Pure F B","Read Pure F B",STENCH,SMELL,Study2,F,112,69,STUDY,8,8,,Study/JOL,"Study Phase",8000,,,-1,-1,,,,1
10106849,ywwqm2xl02,Nick_Dissertation_EX2_EP,1,19,2022-02-25T17:13:57+00:00,8.1118679046631,4,Pure_Forward.csv,READVersionB.csv,"Read Pure F B","Read Pure F B",PILOT,PLANE,Study2,F,114,62,STUDY,8,8,,Study/JOL,"Study Phase",8004,,,-1,-1,,,,1
10106849,ywwqm2xl02,Nick_Dissertation_EX2_EP,1,20,2022-02-25T17:14:05+00:00,8.1107320785522,4,Pure_Forward.csv,READVersionB.csv,"Read Pure F B","Read Pure F B",FURRY,DOG,Study2,F,162,80,STUDY,8,8,,Study/JOL,"Study Phase",8000,,,-1,-1,,,,1
10106849,ywwqm2xl02,Nick_Dissertation_EX2_EP,1,21,2022-02-25T17:14:13+00:00,8.1111619472504,4,Pure_Forward.csv,READVersionB.csv,"Read Pure F B","Read Pure F B",SHEARS,SCISSORS,Study2,F,172,63,STUDY,8,8,,Study/JOL,"Study Phase",8001,,,-1,-1,,,,1
10106849,ywwqm2xl02,Nick_Dissertation_EX2_EP,1,22,2022-02-25T17:14:21+00:00,8.1213090419769,4,Pure_Forward.csv,READVersionB.csv,"Read Pure F B","Read Pure F B",WASP,BUG,Study2,F,102,76,STUDY,8,8,,Study/JOL,"Study Phase",8000,,,-1,-1,,,,1
10106849,ywwqm2xl02,Nick_Dissertation_EX2_EP,1,23,2022-02-25T17:14:29+00:00,8.1227281093597,4,Pure_Forward.csv,READVersionB.csv,"Read Pure F B","Read Pure F B",ATTIRE,CLOTHES,Study2,F,113,65,STUDY,8,8,,Study/JOL,"Study Phase",8000,,,-1,-1,,,,1
10106849,ywwqm2xl02,Nick_Dissertation_EX2_EP,1,24,2022-02-25T17:14:37+00:00,8.1276249885559,4,Pure_Forward.csv,READVersionB.csv,"Read Pure F B","Read Pure F B",GROWTH,HEIGHT,Study2,F,100,93,STUDY,8,8,,Study/JOL,"Study Phase",8001,,,-1,-1,,,,1
10106849,ywwqm2xl02,Nick_Dissertation_EX2_EP,1,25,2022-02-25T17:14:45+00:00,8.1168949604034,4,Pure_Forward.csv,READVersionB.csv,"Read Pure F B","Read Pure F B",CHORE,WORK,Study2,F,109,88,STUDY,8,8,,Study/JOL,"Study Phase",8003,,,-1,-1,,,,1
10106849,ywwqm2xl02,Nick_Dissertation_EX2_EP,1,26,2022-02-25T17:14:53+00:00,8.1182930469513,4,Pure_Forward.csv,READVersionB.csv,"Read Pure F B","Read Pure F B",CHERRY,RED,Study2,F,164,85,STUDY,8,8,,Study/JOL,"Study Phase",8001,,,-1,-1,,,,0.972
10106849,ywwqm2xl02,Nick_Dissertation_EX2_EP,1,27,2022-02-25T17:15:02+00:00,8.1168169975281,4,Pure_Forward.csv,READVersionB.csv,"Read Pure F B","Read Pure F B",SEIZE,TAKE,Study2,F,99,86,STUDY,8,8,,Study/JOL,"Study Phase",8001,,,-1,-1,,,,1
10106849,ywwqm2xl02,Nick_Dissertation_EX2_EP,1,28,2022-02-25T17:15:10+00:00,8.1237299442291,4,Pure_Forward.csv,READVersionB.csv,"Read Pure F B","Read Pure F B",DROWSY,SLEEP,Study2,F,111,90,STUDY,8,8,,Study/JOL,"Study Phase",8001,,,-1,-1,,,,1
10106849,ywwqm2xl02,Nick_Dissertation_EX2_EP,1,29,2022-02-25T17:15:18+00:00,8.1207060813904,4,Pure_Forward.csv,READVersionB.csv,"Read Pure F B","Read Pure F B",SHOELACE,TIE,Study2,F,159,64,STUDY,8,8,,Study/JOL,"Study Phase",8000,,,-1,-1,,,,1
10106849,ywwqm2xl02,Nick_Dissertation_EX2_EP,1,30,2022-02-25T17:15:26+00:00,8.1174538135529,4,Pure_Forward.csv,READVersionB.csv,"Read Pure F B","Read Pure F B",FEUD,FIGHT,Study2,F,173,75,STUDY,8,8,,Study/JOL,"Study Phase",8000,,,-1,-1,,,,1
10106849,ywwqm2xl02,Nick_Dissertation_EX2_EP,1,31,2022-02-25T17:15:34+00:00,8.1131200790405,4,Pure_Forward.csv,READVersionB.csv,"Read Pure F B","Read Pure F B",EXTENSION,LONG,Study2,F,156,94,STUDY,8,8,,Study/JOL,"Study Phase",8000,,,-1,-1,,,,1
10106849,ywwqm2xl02,Nick_Dissertation_EX2_EP,1,32,2022-02-25T17:15:42+00:00,8.1236619949341,4,Pure_Forward.csv,READVersionB.csv,"Read Pure F B","Read Pure F B",CHILI,HOT,Study2,F,107,95,STUDY,8,8,,Study/JOL,"Study Phase",8001,,,-1,-1,,,,1
10106849,ywwqm2xl02,Nick_Dissertation_EX2_EP,1,33,2022-02-25T17:15:50+00:00,8.119961977005,4,Pure_Forward.csv,READVersionB.csv,"Read Pure F B","Read Pure F B",ADJOURN,END,Study2,F,161,59,STUDY,8,8,,Study/JOL,"Study Phase",8000,,,-1,-1,,,,1
10106849,ywwqm2xl02,Nick_Dissertation_EX2_EP,1,34,2022-02-25T17:15:58+00:00,8.1212830543518,4,Pure_Forward.csv,READVersionB.csv,"Read Pure F B","Read Pure F B",DISCUSSION,TALK,Study1,F,21,23,STUDY,8,8,,Study/JOL,"Study Phase",8001,,,-1,-1,,,,1
10106849,ywwqm2xl02,Nick_Dissertation_EX2_EP,1,35,2022-02-25T17:16:07+00:00,8.1272120475769,4,Pure_Forward.csv,READVersionB.csv,"Read Pure F B","Read Pure F B",CLUE,GAME,Study2,F,157,73,STUDY,8,8,,Study/JOL,"Study Phase",8001,,,-1,-1,,,,1
10106849,ywwqm2xl02,Nick_Dissertation_EX2_EP,1,36,2022-02-25T17:16:15+00:00,8.1177430152893,4,Pure_Forward.csv,READVersionB.csv,"Read Pure F B","Read Pure F B",LITTER,TRASH,Study2,F,163,77,STUDY,8,8,,Study/JOL,"Study Phase",8000,,,-1,-1,,,,1
10106849,ywwqm2xl02,Nick_Dissertation_EX2_EP,1,37,2022-02-25T17:16:23+00:00,8.1133728027344,4,Pure_Forward.csv,READVersionB.csv,"Read Pure F B","Read Pure F B",FAMINE,HUNGER,Study2,F,110,81,STUDY,8,8,,Study/JOL,"Study Phase",8001,,,-1,-1,,,,1
10106849,ywwqm2xl02,Nick_Dissertation_EX2_EP,1,38,2022-02-25T17:16:31+00:00,8.122123003006,4,Pure_Forward.csv,READVersionB.csv,"Read Pure F B","Read Pure F B",CHILL,COLD,Study2,F,174,61,STUDY,8,8,,Study/JOL,"Study Phase",8002,,,-1,-1,,,,1
10106849,ywwqm2xl02,Nick_Dissertation_EX2_EP,1,39,2022-02-25T17:16:39+00:00,8.1234920024872,4,Pure_Forward.csv,READVersionB.csv,"Read Pure F B","Read Pure F B",DINE,EAT,Study2,F,171,89,STUDY,8,8,,Study/JOL,"Study Phase",8001,,,-1,-1,,,,1
10106849,ywwqm2xl02,Nick_Dissertation_EX2_EP,1,40,2022-02-25T17:16:47+00:00,8.1253280639648,4,Pure_Forward.csv,READVersionB.csv,"Read Pure F B","Read Pure F B",LATCH,KEY,Study2,F,106,74,STUDY,8,8,,Study/JOL,"Study Phase",8002,,,-1,-1,,,,1
10106849,ywwqm2xl02,Nick_Dissertation_EX2_EP,1,41,2022-02-25T17:16:55+00:00,8.1174900531769,4,Pure_Forward.csv,READVersionB.csv,"Read Pure F B","Read Pure F B",DOCUMENT,PAPER,Study2,F,169,91,STUDY,8,8,,Study/JOL,"Study Phase",8000,,,-1,-1,,,,1
10106849,ywwqm2xl02,Nick_Dissertation_EX2_EP,1,42,2022-02-25T17:17:03+00:00,8.12340092659,4,Pure_Forward.csv,READVersionB.csv,"Read Pure F B","Read Pure F B",DIVISION,MATH,Study2,F,103,60,STUDY,8,8,,Study/JOL,"Study Phase",8001,,,-1,-1,,,,1
10106849,ywwqm2xl02,Nick_Dissertation_EX2_EP,1,43,2022-02-25T17:17:11+00:00,8.1267030239105,4,Pure_Forward.csv,READVersionB.csv,"Read Pure F B","Read Pure F B",SCALP,HEAD,Study2,F,165,68,STUDY,8,8,,Study/JOL,"Study Phase",8001,,,-1,-1,,,,1
10106849,ywwqm2xl02,Nick_Dissertation_EX2_EP,1,44,2022-02-25T17:17:20+00:00,8.1275279521942,4,Pure_Forward.csv,READVersionB.csv,"Read Pure F B","Read Pure F B",DETECTIVE,MYSTERY,Study2,F,160,82,STUDY,8,8,,Study/JOL,"Study Phase",8002,,,-1,-1,,,,1
10106849,ywwqm2xl02,Nick_Dissertation_EX2_EP,1,45,2022-02-25T17:17:28+00:00,8.1130080223083,4,Pure_Forward.csv,READVersionB.csv,"Read Pure F B","Read Pure F B",ENOUGH,FULL,Study2,F,96,66,STUDY,8,8,,Study/JOL,"Study Phase",8000,,,-1,-1,,,,1
10106849,ywwqm2xl02,Nick_Dissertation_EX2_EP,1,46,2022-02-25T17:17:36+00:00,8.129646062851,4,Pure_Forward.csv,READVersionB.csv,"Read Pure F B","Read Pure F B",ATTORNEY,LAW,Study2,F,104,72,STUDY,8,8,,Study/JOL,"Study Phase",8000,,,-1,-1,,,,1
10106849,ywwqm2xl02,Nick_Dissertation_EX2_EP,1,47,2022-02-25T17:17:44+00:00,8.1231400966644,4,Pure_Forward.csv,READVersionB.csv,"Read Pure F B","Read Pure F B",DAYS,WEEKS,BUFFER4,Buffer,176,99,STUDY,8,8,,Study/JOL,BUFFER2,8002,,,-1,-1,,,,1
10106849,ywwqm2xl02,Nick_Dissertation_EX2_EP,1,48,2022-02-25T17:17:52+00:00,8.1281728744507,4,Pure_Forward.csv,READVersionB.csv,"Read Pure F B","Read Pure F B",TOOL,SHED,BUFFER4,Buffer,178,101,STUDY,8,8,,Study/JOL,BUFFER2,8001,,,-1,-1,,,,1
10106849,ywwqm2xl02,Nick_Dissertation_EX2_EP,1,49,2022-02-25T17:18:00+00:00,8.1174631118774,4,Pure_Forward.csv,READVersionB.csv,"Read Pure F B","Read Pure F B",SPRING,MARCH,BUFFER4,Buffer,179,100,STUDY,8,8,,Study/JOL,BUFFER2,8000,,,-1,-1,,,,1
10106849,ywwqm2xl02,Nick_Dissertation_EX2_EP,1,50,2022-02-25T17:18:08+00:00,8.1254730224609,4,Pure_Forward.csv,READVersionB.csv,"Read Pure F B","Read Pure F B",OCTOBER,SPOOKY,BUFFER4,Buffer,180,97,STUDY,8,8,,Study/JOL,BUFFER2,8001,,,-1,-1,,,,1
10106849,ywwqm2xl02,Nick_Dissertation_EX2_EP,1,51,2022-02-25T17:18:16+00:00,8.128515958786,4,Pure_Forward.csv,READVersionB.csv,"Read Pure F B","Read Pure F B",MONTH,YEAR,BUFFER4,Buffer,177,98,STUDY,8,8,,Study/JOL,BUFFER2,8001,,,-1,-1,,,,1
10106849,ywwqm2xl02,Nick_Dissertation_EX2_EP,1,52,2022-02-25T17:18:20+00:00,3.4738209247589,4,Pure_Forward.csv,READVersionB.csv,"Read Pure F B","Read Pure F B",,,,,,0,Instruct,User,-,"You have completed this section. Please press Enter.",Filler_Instruction,Instruct2,3358,,,-1,-1,,,,1
10106849,ywwqm2xl02,Nick_Dissertation_EX2_EP,1,53,2022-02-25T17:20:20+00:00,120.18314194679,4,Pure_Forward.csv,READVersionB.csv,"Read Pure F B","Read Pure F B",,,,,,0,FreeRecall,120,120,"Please list the 50 US states in alphabetical order. The task will automatically advance to the next screen after two minutes.",,Filler1,120002,"alabama arkensas conneticuit florida georgia illinois indiana iowa kansas kentucky maine mississippi new york north dakota washington ",0,8380,107823,0,0,,1
10106849,ywwqm2xl02,Nick_Dissertation_EX2_EP,1,54,2022-02-25T17:20:31+00:00,11.137859106064,4,Pure_Forward.csv,READVersionB.csv,"Read Pure F B","Read Pure F B",,,,,,0,Instruct,-,10,"You will now be presented with the first word from each of the previously studied item pairs. Please type the missing word. If you do not know the word, you may guess or press Enter to skip forward to the next pair.",,Instruct3,11005,,,-1,-1,,,,1
10106849,ywwqm2xl02,Nick_Dissertation_EX2_EP,1,55,2022-02-25T17:20:34+00:00,2.8325068950653,4,Pure_Forward.csv,READVersionB.csv,"Read Pure F B","Read Pure F B",RACKET,BALL,Study2,F,108,67,Test,User,-,,Recall,Recall1,2698,ball,100,1620,2323,1,1,,1
10106849,ywwqm2xl02,Nick_Dissertation_EX2_EP,1,56,2022-02-25T17:20:37+00:00,2.4499959945679,4,Pure_Forward.csv,READVersionB.csv,"Read Pure F B","Read Pure F B",ENOUGH,FULL,Study2,F,96,66,Test,User,-,,Recall,Recall1,2335,full,100,1635,2019,1,1,,1
10106849,ywwqm2xl02,Nick_Dissertation_EX2_EP,1,57,2022-02-25T17:20:40+00:00,3.3499550819397,4,Pure_Forward.csv,READVersionB.csv,"Read Pure F B","Read Pure F B",CLUE,GAME,Study2,F,157,73,Test,User,-,,Recall,Recall1,3242,game,100,2434,3095,1,1,,1
10106849,ywwqm2xl02,Nick_Dissertation_EX2_EP,1,58,2022-02-25T17:20:41+00:00,1.5082268714905,4,Pure_Forward.csv,READVersionB.csv,"Read Pure F B","Read Pure F B",DIVISION,MATH,Study2,F,103,60,Test,User,-,,Recall,Recall1,1395,,0,-1,-1,0,0,,1
10106849,ywwqm2xl02,Nick_Dissertation_EX2_EP,1,59,2022-02-25T17:20:44+00:00,2.7801351547241,4,Pure_Forward.csv,READVersionB.csv,"Read Pure F B","Read Pure F B",FAMINE,HUNGER,Study2,F,110,81,Test,User,-,,Recall,Recall1,2656,hunger,100,1207,1955,1,1,,1
10106849,ywwqm2xl02,Nick_Dissertation_EX2_EP,1,60,2022-02-25T17:20:46+00:00,2.153382062912,4,Pure_Forward.csv,READVersionB.csv,"Read Pure F B","Read Pure F B",LITTER,TRASH,Study2,F,163,77,Test,User,-,,Recall,Recall1,2039,,0,-1,-1,0,0,,1
10106849,ywwqm2xl02,Nick_Dissertation_EX2_EP,1,61,2022-02-25T17:20:48+00:00,2.040463924408,4,Pure_Forward.csv,READVersionB.csv,"Read Pure F B","Read Pure F B",WORD,SENTENCE,Study2,F,101,79,Test,User,-,,Recall,Recall1,1926,,0,-1,-1,0,0,,1
10106849,ywwqm2xl02,Nick_Dissertation_EX2_EP,1,62,2022-02-25T17:20:51+00:00,2.4045369625092,4,Pure_Forward.csv,READVersionB.csv,"Read Pure F B","Read Pure F B",MULE,DONKEY,Study2,F,168,84,Test,User,-,,Recall,Recall1,2295,donkey,100,1498,2085,1,1,,1
10106849,ywwqm2xl02,Nick_Dissertation_EX2_EP,1,63,2022-02-25T17:20:53+00:00,2.5141980648041,4,Pure_Forward.csv,READVersionB.csv,"Read Pure F B","Read Pure F B",EXTENSION,LONG,Study2,F,156,94,Test,User,-,,Recall,Recall1,2403,long,100,1467,2149,1,1,,1
10106849,ywwqm2xl02,Nick_Dissertation_EX2_EP,1,64,2022-02-25T17:20:56+00:00,2.7223889827728,4,Pure_Forward.csv,READVersionB.csv,"Read Pure F B","Read Pure F B",WASP,BUG,Study2,F,102,76,Test,User,-,,Recall,Recall1,2616,bee,33.333333333333,2084,2445,0,0,,1
10106849,ywwqm2xl02,Nick_Dissertation_EX2_EP,1,65,2022-02-25T17:20:58+00:00,1.4756360054016,4,Pure_Forward.csv,READVersionB.csv,"Read Pure F B","Read Pure F B",DOCUMENT,PAPER,Study2,F,169,91,Test,User,-,,Recall,Recall1,1366,,0,-1,-1,0,0,,1
10106849,ywwqm2xl02,Nick_Dissertation_EX2_EP,1,66,2022-02-25T17:21:00+00:00,2.2734830379486,4,Pure_Forward.csv,READVersionB.csv,"Read Pure F B","Read Pure F B",CHILL,COLD,Study2,F,174,61,Test,User,-,,Recall,Recall1,2165,,0,-1,-1,0,0,,1
10106849,ywwqm2xl02,Nick_Dissertation_EX2_EP,1,67,2022-02-25T17:21:03+00:00,3.307984828949,4,Pure_Forward.csv,READVersionB.csv,"Read Pure F B","Read Pure F B",DINE,EAT,Study2,F,171,89,Test,User,-,,Recall,Recall1,3203,eat,100,1813,2974,1,1,,1
10106849,ywwqm2xl02,Nick_Dissertation_EX2_EP,1,68,2022-02-25T17:21:04+00:00,1.2602269649506,4,Pure_Forward.csv,READVersionB.csv,"Read Pure F B","Read Pure F B",ATTIRE,CLOTHES,Study2,F,113,65,Test,User,-,,Recall,Recall1,1148,,0,-1,-1,0,0,,1
10106849,ywwqm2xl02,Nick_Dissertation_EX2_EP,1,69,2022-02-25T17:21:06+00:00,1.4522631168365,4,Pure_Forward.csv,READVersionB.csv,"Read Pure F B","Read Pure F B",FANTASTIC,GREAT,Study2,F,105,70,Test,User,-,,Recall,Recall1,1344,,0,-1,-1,0,0,,1
10106849,ywwqm2xl02,Nick_Dissertation_EX2_EP,1,70,2022-02-25T17:21:07+00:00,0.86038494110107,4,Pure_Forward.csv,READVersionB.csv,"Read Pure F B","Read Pure F B",BLAZE,FIRE,Study2,F,115,92,Test,User,-,,Recall,Recall1,738,,0,-1,-1,0,0,,1
10106849,ywwqm2xl02,Nick_Dissertation_EX2_EP,1,71,2022-02-25T17:21:08+00:00,1.3610589504242,4,Pure_Forward.csv,READVersionB.csv,"Read Pure F B","Read Pure F B",SCALP,HEAD,Study2,F,165,68,Test,User,-,,Recall,Recall1,1249,,0,-1,-1,0,0,,1
10106849,ywwqm2xl02,Nick_Dissertation_EX2_EP,1,72,2022-02-25T17:21:11+00:00,3.4667150974274,4,Pure_Forward.csv,READVersionB.csv,"Read Pure F B","Read Pure F B",STENCH,SMELL,Study2,F,112,69,Test,User,-,,Recall,Recall1,3357,stink,20,2220,3032,0,0,,1
10106849,ywwqm2xl02,Nick_Dissertation_EX2_EP,1,73,2022-02-25T17:21:14+00:00,2.5676960945129,4,Pure_Forward.csv,READVersionB.csv,"Read Pure F B","Read Pure F B",INCENSE,SMELL,Study2,F,170,87,Test,User,-,,Recall,Recall1,2452,smell,100,1626,2229,1,1,,1
10106849,ywwqm2xl02,Nick_Dissertation_EX2_EP,1,74,2022-02-25T17:21:16+00:00,1.5225319862366,4,Pure_Forward.csv,READVersionB.csv,"Read Pure F B","Read Pure F B",FURRY,DOG,Study2,F,162,80,Test,User,-,,Recall,Recall1,1401,,0,-1,-1,0,0,,1
10106849,ywwqm2xl02,Nick_Dissertation_EX2_EP,1,75,2022-02-25T17:21:19+00:00,2.9708619117737,4,Pure_Forward.csv,READVersionB.csv,"Read Pure F B","Read Pure F B",DROWSY,SLEEP,Study2,F,111,90,Test,User,-,,Recall,Recall1,2853,sleep,100,1237,2607,1,1,,1
10106849,ywwqm2xl02,Nick_Dissertation_EX2_EP,1,76,2022-02-25T17:21:20+00:00,1.3039000034332,4,Pure_Forward.csv,READVersionB.csv,"Read Pure F B","Read Pure F B",GROWTH,HEIGHT,Study2,F,100,93,Test,User,-,,Recall,Recall1,1193,,0,-1,-1,0,0,,1
10106849,ywwqm2xl02,Nick_Dissertation_EX2_EP,1,77,2022-02-25T17:21:21+00:00,1.0880250930786,4,Pure_Forward.csv,READVersionB.csv,"Read Pure F B","Read Pure F B",DETECTIVE,MYSTERY,Study2,F,160,82,Test,User,-,,Recall,Recall1,975,,0,-1,-1,0,0,,1
10106849,ywwqm2xl02,Nick_Dissertation_EX2_EP,1,78,2022-02-25T17:21:22+00:00,0.86230993270874,4,Pure_Forward.csv,READVersionB.csv,"Read Pure F B","Read Pure F B",LATCH,KEY,Study2,F,106,74,Test,User,-,,Recall,Recall1,751,,0,-1,-1,0,0,,1
10106849,ywwqm2xl02,Nick_Dissertation_EX2_EP,1,79,2022-02-25T17:21:23+00:00,1.072329044342,4,Pure_Forward.csv,READVersionB.csv,"Read Pure F B","Read Pure F B",SIP,DRINK,Study2,F,97,96,Test,User,-,,Recall,Recall1,971,,0,-1,-1,0,0,,1
10106849,ywwqm2xl02,Nick_Dissertation_EX2_EP,1,80,2022-02-25T17:21:24+00:00,1.0456080436707,4,Pure_Forward.csv,READVersionB.csv,"Read Pure F B","Read Pure F B",CHILI,HOT,Study2,F,107,95,Test,User,-,,Recall,Recall1,935,,0,-1,-1,0,0,,1
10106849,ywwqm2xl02,Nick_Dissertation_EX2_EP,1,81,2022-02-25T17:21:27+00:00,2.7262518405914,4,Pure_Forward.csv,READVersionB.csv,"Read Pure F B","Read Pure F B",ADJOURN,END,Study2,F,161,59,Test,User,-,,Recall,Recall1,2621,join,28.571428571429,1899,2365,0,0,,1
10106849,ywwqm2xl02,Nick_Dissertation_EX2_EP,1,82,2022-02-25T17:21:28+00:00,1.2749891281128,4,Pure_Forward.csv,READVersionB.csv,"Read Pure F B","Read Pure F B",PILOT,PLANE,Study2,F,114,62,Test,User,-,,Recall,Recall1,1166,,0,-1,-1,0,0,,1
10106849,ywwqm2xl02,Nick_Dissertation_EX2_EP,1,83,2022-02-25T17:21:30+00:00,1.8339149951935,4,Pure_Forward.csv,READVersionB.csv,"Read Pure F B","Read Pure F B",FEUD,FIGHT,Study2,F,173,75,Test,User,-,,Recall,Recall1,1721,,0,-1,-1,0,0,,1
10106849,ywwqm2xl02,Nick_Dissertation_EX2_EP,1,84,2022-02-25T17:21:33+00:00,2.8223278522491,4,Pure_Forward.csv,READVersionB.csv,"Read Pure F B","Read Pure F B",ATTORNEY,LAW,Study2,F,104,72,Test,User,-,,Recall,Recall1,2711,law,100,2127,2455,1,1,,1
10106849,ywwqm2xl02,Nick_Dissertation_EX2_EP,1,85,2022-02-25T17:21:34+00:00,1.3547730445862,4,Pure_Forward.csv,READVersionB.csv,"Read Pure F B","Read Pure F B",SHOELACE,TIE,Study2,F,159,64,Test,User,-,,Recall,Recall1,1248,,0,-1,-1,0,0,,1
10106849,ywwqm2xl02,Nick_Dissertation_EX2_EP,1,86,2022-02-25T17:21:36+00:00,2.3048679828644,4,Pure_Forward.csv,READVersionB.csv,"Read Pure F B","Read Pure F B",CHERRY,RED,Study2,F,164,85,Test,User,-,,Recall,Recall1,2187,red,100,1751,1972,1,1,,1
10106849,ywwqm2xl02,Nick_Dissertation_EX2_EP,1,87,2022-02-25T17:21:38+00:00,1.7528431415558,4,Pure_Forward.csv,READVersionB.csv,"Read Pure F B","Read Pure F B",CHORE,WORK,Study2,F,109,88,Test,User,-,,Recall,Recall1,1643,,0,-1,-1,0,0,,1
10106849,ywwqm2xl02,Nick_Dissertation_EX2_EP,1,88,2022-02-25T17:21:50+00:00,11.524724006653,4,Pure_Forward.csv,READVersionB.csv,"Read Pure F B","Read Pure F B",ADJOURN,END,Study2,F,161,59,Test,User,-,,Recall,Recall1,11398,pair,0,10010,11020,0,0,,1
10106849,ywwqm2xl02,Nick_Dissertation_EX2_EP,1,89,2022-02-25T17:21:51+00:00,0.99978399276733,4,Pure_Forward.csv,READVersionB.csv,"Read Pure F B","Read Pure F B",CACTUS,PLANT,Study2,F,158,78,Test,User,-,,Recall,Recall1,885,,0,-1,-1,0,0,,1
10106849,ywwqm2xl02,Nick_Dissertation_EX2_EP,1,90,2022-02-25T17:21:51+00:00,0.91962790489197,4,Pure_Forward.csv,READVersionB.csv,"Read Pure F B","Read Pure F B",SHEARS,SCISSORS,Study2,F,172,63,Test,User,-,,Recall,Recall1,810,,0,-1,-1,0,0,,1
10106849,ywwqm2xl02,Nick_Dissertation_EX2_EP,1,91,2022-02-25T17:21:52+00:00,1.0456941127777,4,Pure_Forward.csv,READVersionB.csv,"Read Pure F B","Read Pure F B",DISCUSSION,TALK,Study1,F,21,23,Test,User,-,,Recall,Recall1,934,,0,-1,-1,0,0,,1
10106849,ywwqm2xl02,Nick_Dissertation_EX2_EP,1,92,2022-02-25T17:21:55+00:00,2.6360788345337,4,Pure_Forward.csv,READVersionB.csv,"Read Pure F B","Read Pure F B",SEIZE,TAKE,Study2,F,99,86,Test,User,-,,Recall,Recall1,2524,take,100,1745,2355,1,1,,1
10106849,ywwqm2xl02,Nick_Dissertation_EX2_EP,1,93,2022-02-25T17:21:57+00:00,2.1845691204071,4,Pure_Forward.csv,READVersionB.csv,"Read Pure F B","Read Pure F B",AFFECTION,LOVE,Study2,F,175,57,Test,User,-,,Recall,Recall1,2077,love,100,1384,1902,1,1,,1
10106849,ywwqm2xl02,Nick_Dissertation_EX2_EP,1,94,2022-02-25T17:21:58+00:00,1.1217279434204,4,Pure_Forward.csv,READVersionB.csv,"Read Pure F B","Read Pure F B",CAVE,DARK,Study2,F,98,71,Test,User,-,,Recall,Recall1,1015,,0,-1,-1,0,0,,1
10106849,ywwqm2xl02,Nick_Dissertation_EX2_EP,1,95,2022-02-25T17:22:09+00:00,10.963490009308,4,Pure_Forward.csv,READVersionB.csv,"Read Pure F B","Read Pure F B",,,,,,0,Instruct,-,10,"You will now be presented with a new set of word pairs. Please study each pair. Remember that your memory will be tested! Each pair will be displayed on the computer screen and will automatically advance to the next pair. Press ENTER when you are ready to begin.",Initial_Instruct,Instruct4,10839,,,-1,-1,,,,1
10106849,ywwqm2xl02,Nick_Dissertation_EX2_EP,1,96,2022-02-25T17:22:18+00:00,8.1300630569458,4,Pure_Forward.csv,READVersionB.csv,"Read Pure F B","Read Pure F B",TREES,GREEN,BUFFER1,Buffer,1,2,STUDY,8,8,,Study/JOL,BUFFER3,8002,,,-1,-1,,,,1
10106849,ywwqm2xl02,Nick_Dissertation_EX2_EP,1,97,2022-02-25T17:22:26+00:00,8.1280658245087,4,Pure_Forward.csv,READVersionB.csv,"Read Pure F B","Read Pure F B",SPACE,JAM,BUFFER1,Buffer,5,4,STUDY,8,8,,Study/JOL,BUFFER3,8002,,,-1,-1,,,,1
10106849,ywwqm2xl02,Nick_Dissertation_EX2_EP,1,98,2022-02-25T17:22:34+00:00,8.1317391395569,4,Pure_Forward.csv,READVersionB.csv,"Read Pure F B","Read Pure F B",SCARE,HIDE,BUFFER1,Buffer,4,3,STUDY,8,8,,Study/JOL,BUFFER3,8002,,,-1,-1,,,,1
10106849,ywwqm2xl02,Nick_Dissertation_EX2_EP,1,99,2022-02-25T17:22:42+00:00,8.1291379928589,4,Pure_Forward.csv,READVersionB.csv,"Read Pure F B","Read Pure F B",BASEBALL,CATCHER,BUFFER1,Buffer,2,6,STUDY,8,8,,Study/JOL,BUFFER3,8001,,,-1,-1,,,,1
10106849,ywwqm2xl02,Nick_Dissertation_EX2_EP,1,100,2022-02-25T17:22:50+00:00,8.1325669288635,4,Pure_Forward.csv,READVersionB.csv,"Read Pure F B","Read Pure F B",PEANUT,BUTTER,BUFFER1,Buffer,3,5,STUDY,8,8,,Study/JOL,BUFFER3,8002,,,-1,-1,,,,1
10106849,ywwqm2xl02,Nick_Dissertation_EX2_EP,1,101,2022-02-25T17:22:58+00:00,8.1285569667816,4,Pure_Forward.csv,READVersionB.csv,"Read Pure F B","Read Pure F B",PAW,DOG,Study1,F,15,21,STUDY,8,8,,Study/JOL,"Study Phase2",8002,,,-1,-1,,,,1
10106849,ywwqm2xl02,Nick_Dissertation_EX2_EP,1,102,2022-02-25T17:23:06+00:00,8.1336669921875,4,Pure_Forward.csv,READVersionB.csv,"Read Pure F B","Read Pure F B",HORNET,STING,Study1,F,11,17,STUDY,8,8,,Study/JOL,"Study Phase2",8002,,,-1,-1,,,,1
10106849,ywwqm2xl02,Nick_Dissertation_EX2_EP,1,103,2022-02-25T17:23:14+00:00,8.1300790309906,4,Pure_Forward.csv,READVersionB.csv,"Read Pure F B","Read Pure F B",WINDSHIELD,CAR,Study1,F,67,13,STUDY,8,8,,Study/JOL,"Study Phase2",8001,,,-1,-1,,,,1
10106849,ywwqm2xl02,Nick_Dissertation_EX2_EP,1,104,2022-02-25T17:23:23+00:00,8.1313469409943,4,Pure_Forward.csv,READVersionB.csv,"Read Pure F B","Read Pure F B",LEAGUE,BASEBALL,Study1,F,81,16,STUDY,8,8,,Study/JOL,"Study Phase2",8002,,,-1,-1,,,,1
10106849,ywwqm2xl02,Nick_Dissertation_EX2_EP,1,105,2022-02-25T17:23:31+00:00,8.1290590763092,4,Pure_Forward.csv,READVersionB.csv,"Read Pure F B","Read Pure F B",NAP,SLEEP,Study1,F,84,45,STUDY,8,8,,Study/JOL,"Study Phase2",8001,,,-1,-1,,,,1
10106849,ywwqm2xl02,Nick_Dissertation_EX2_EP,1,106,2022-02-25T17:23:39+00:00,8.1352641582489,4,Pure_Forward.csv,READVersionB.csv,"Read Pure F B","Read Pure F B",REVENGE,EVEN,Study1,F,72,24,STUDY,8,8,,Study/JOL,"Study Phase2",8002,,,-1,-1,,,,1
10106849,ywwqm2xl02,Nick_Dissertation_EX2_EP,1,107,2022-02-25T17:23:47+00:00,8.1294448375702,4,Pure_Forward.csv,READVersionB.csv,"Read Pure F B","Read Pure F B",AIRCRAFT,PLANE,Study1,F,79,27,STUDY,8,8,,Study/JOL,"Study Phase2",8001,,,-1,-1,,,,1
10106849,ywwqm2xl02,Nick_Dissertation_EX2_EP,1,108,2022-02-25T17:23:55+00:00,8.1313049793243,4,Pure_Forward.csv,READVersionB.csv,"Read Pure F B","Read Pure F B",HERD,COW,Study1,F,22,28,STUDY,8,8,,Study/JOL,"Study Phase2",8002,,,-1,-1,,,,1
10106849,ywwqm2xl02,Nick_Dissertation_EX2_EP,1,109,2022-02-25T17:24:03+00:00,8.1260571479797,4,Pure_Forward.csv,READVersionB.csv,"Read Pure F B","Read Pure F B",DIGESTION,STOMACH,Study1,F,7,15,STUDY,8,8,,Study/JOL,"Study Phase2",8002,,,-1,-1,,,,1
10106849,ywwqm2xl02,Nick_Dissertation_EX2_EP,1,110,2022-02-25T17:24:11+00:00,8.1265108585358,4,Pure_Forward.csv,READVersionB.csv,"Read Pure F B","Read Pure F B",STRAWBERRY,FRUIT,Study1,F,74,44,STUDY,8,8,,Study/JOL,"Study Phase2",8002,,,-1,-1,,,,1
10106849,ywwqm2xl02,Nick_Dissertation_EX2_EP,1,111,2022-02-25T17:24:19+00:00,8.1306850910187,4,Pure_Forward.csv,READVersionB.csv,"Read Pure F B","Read Pure F B",FLIP,TURN,Study1,F,66,38,STUDY,8,8,,Study/JOL,"Study Phase2",8002,,,-1,-1,,,,1
10106849,ywwqm2xl02,Nick_Dissertation_EX2_EP,1,112,2022-02-25T17:24:28+00:00,8.1319279670715,4,Pure_Forward.csv,READVersionB.csv,"Read Pure F B","Read Pure F B",SARDINE,FISH,Study1,F,80,32,STUDY,8,8,,Study/JOL,"Study Phase2",8003,,,-1,-1,,,,1
10106849,ywwqm2xl02,Nick_Dissertation_EX2_EP,1,113,2022-02-25T17:24:36+00:00,8.1266739368439,4,Pure_Forward.csv,READVersionB.csv,"Read Pure F B","Read Pure F B",ORCHID,FLOWER,Study1,F,24,37,STUDY,8,8,,Study/JOL,"Study Phase2",8004,,,-1,-1,,,,1
10106849,ywwqm2xl02,Nick_Dissertation_EX2_EP,1,114,2022-02-25T17:24:44+00:00,8.1390051841736,4,Pure_Forward.csv,READVersionB.csv,"Read Pure F B","Read Pure F B",CHISEL,HAMMER,Study1,F,9,18,STUDY,8,8,,Study/JOL,"Study Phase2",8002,,,-1,-1,,,,1
10106849,ywwqm2xl02,Nick_Dissertation_EX2_EP,1,115,2022-02-25T17:24:52+00:00,8.1276888847351,4,Pure_Forward.csv,READVersionB.csv,"Read Pure F B","Read Pure F B",ACTRESS,STAR,Study1,F,70,9,STUDY,8,8,,Study/JOL,"Study Phase2",8002,,,-1,-1,,,,1
10106849,ywwqm2xl02,Nick_Dissertation_EX2_EP,1,116,2022-02-25T17:25:00+00:00,8.1459438800812,4,Pure_Forward.csv,READVersionB.csv,"Read Pure F B","Read Pure F B",VILLAIN,BAD,Study1,F,68,30,STUDY,8,8,,Study/JOL,"Study Phase2",8005,,,-1,-1,,,,1
10106849,ywwqm2xl02,Nick_Dissertation_EX2_EP,1,117,2022-02-25T17:25:08+00:00,8.1245591640472,4,Pure_Forward.csv,READVersionB.csv,"Read Pure F B","Read Pure F B",BREAKABLE,GLASS,Study1,F,77,33,STUDY,8,8,,Study/JOL,"Study Phase2",8000,,,-1,-1,,,,1
10106849,ywwqm2xl02,Nick_Dissertation_EX2_EP,1,118,2022-02-25T17:25:16+00:00,8.1264619827271,4,Pure_Forward.csv,READVersionB.csv,"Read Pure F B","Read Pure F B",COFFIN,DEAD,Study1,F,78,7,STUDY,8,8,,Study/JOL,"Study Phase2",8002,,,-1,-1,,,,1
10106849,ywwqm2xl02,Nick_Dissertation_EX2_EP,1,119,2022-02-25T17:25:25+00:00,8.128212928772,4,Pure_Forward.csv,READVersionB.csv,"Read Pure F B","Read Pure F B",BANKER,MONEY,Study1,F,82,10,STUDY,8,8,,Study/JOL,"Study Phase2",8000,,,-1,-1,,,,1
10106849,ywwqm2xl02,Nick_Dissertation_EX2_EP,1,120,2022-02-25T17:25:33+00:00,8.1204700469971,4,Pure_Forward.csv,READVersionB.csv,"Read Pure F B","Read Pure F B",ROOT,PLANT,Study1,F,13,39,STUDY,8,8,,Study/JOL,"Study Phase2",8000,,,-1,-1,,,,1
10106849,ywwqm2xl02,Nick_Dissertation_EX2_EP,1,121,2022-02-25T17:25:41+00:00,8.1217050552368,4,Pure_Forward.csv,READVersionB.csv,"Read Pure F B","Read Pure F B",PANTHER,CAT,Study1,F,76,19,STUDY,8,8,,Study/JOL,"Study Phase2",8000,,,-1,-1,,,,1
10106849,ywwqm2xl02,Nick_Dissertation_EX2_EP,1,122,2022-02-25T17:25:49+00:00,8.1369800567627,4,Pure_Forward.csv,READVersionB.csv,"Read Pure F B","Read Pure F B",WAY,OUT,Study1,F,16,22,STUDY,8,8,,Study/JOL,"Study Phase2",8001,,,-1,-1,,,,1
10106849,ywwqm2xl02,Nick_Dissertation_EX2_EP,1,123,2022-02-25T17:25:57+00:00,8.118008852005,4,Pure_Forward.csv,READVersionB.csv,"Read Pure F B","Read Pure F B",CREDIT,CARD,Study1,F,23,11,STUDY,8,8,,Study/JOL,"Study Phase2",8000,,,-1,-1,,,,1
10106849,ywwqm2xl02,Nick_Dissertation_EX2_EP,1,124,2022-02-25T17:26:05+00:00,8.1185350418091,4,Pure_Forward.csv,READVersionB.csv,"Read Pure F B","Read Pure F B",GEOLOGY,ROCK,Study1,F,19,12,STUDY,8,8,,Study/JOL,"Study Phase2",8001,,,-1,-1,,,,1
10106849,ywwqm2xl02,Nick_Dissertation_EX2_EP,1,125,2022-02-25T17:26:13+00:00,8.1234409809113,4,Pure_Forward.csv,READVersionB.csv,"Read Pure F B","Read Pure F B",SWAN,BIRD,Study1,F,14,46,STUDY,8,8,,Study/JOL,"Study Phase2",8002,,,-1,-1,,,,1
10106849,ywwqm2xl02,Nick_Dissertation_EX2_EP,1,126,2022-02-25T17:26:21+00:00,8.1243491172791,4,Pure_Forward.csv,READVersionB.csv,"Read Pure F B","Read Pure F B",HYGIENE,CLEAN,Study1,F,17,31,STUDY,8,8,,Study/JOL,"Study Phase2",8002,,,-1,-1,,,,1
10106849,ywwqm2xl02,Nick_Dissertation_EX2_EP,1,127,2022-02-25T17:26:30+00:00,8.1240978240967,4,Pure_Forward.csv,READVersionB.csv,"Read Pure F B","Read Pure F B",DELINQUENT,BAD,Study1,F,6,8,STUDY,8,8,,Study/JOL,"Study Phase2",8002,,,-1,-1,,,,1
10106849,ywwqm2xl02,Nick_Dissertation_EX2_EP,1,128,2022-02-25T17:26:38+00:00,8.1235811710358,4,Pure_Forward.csv,READVersionB.csv,"Read Pure F B","Read Pure F B",BALLOON,POP,Study1,F,73,40,STUDY,8,8,,Study/JOL,"Study Phase2",8001,,,-1,-1,,,,1
10106849,ywwqm2xl02,Nick_Dissertation_EX2_EP,1,129,2022-02-25T17:26:46+00:00,8.1201438903809,4,Pure_Forward.csv,READVersionB.csv,"Read Pure F B","Read Pure F B",THIMBLE,THREAD,Study1,F,71,41,STUDY,8,8,,Study/JOL,"Study Phase2",8001,,,-1,-1,,,,1
10106849,ywwqm2xl02,Nick_Dissertation_EX2_EP,1,130,2022-02-25T17:26:54+00:00,8.1254251003265,4,Pure_Forward.csv,READVersionB.csv,"Read Pure F B","Read Pure F B",PENGUIN,BIRD,Study1,F,69,42,STUDY,8,8,,Study/JOL,"Study Phase2",8001,,,-1,-1,,,,1
10106849,ywwqm2xl02,Nick_Dissertation_EX2_EP,1,131,2022-02-25T17:27:02+00:00,8.1259160041809,4,Pure_Forward.csv,READVersionB.csv,"Read Pure F B","Read Pure F B",REVOLUTION,WAR,Study1,F,20,26,STUDY,8,8,,Study/JOL,"Study Phase2",8001,,,-1,-1,,,,1
10106849,ywwqm2xl02,Nick_Dissertation_EX2_EP,1,132,2022-02-25T17:27:10+00:00,8.119108915329,4,Pure_Forward.csv,READVersionB.csv,"Read Pure F B","Read Pure F B",WAGE,MONEY,Study1,F,8,29,STUDY,8,8,,Study/JOL,"Study Phase2",8002,,,-1,-1,,,,1
10106849,ywwqm2xl02,Nick_Dissertation_EX2_EP,1,133,2022-02-25T17:27:18+00:00,8.1265859603882,4,Pure_Forward.csv,READVersionB.csv,"Read Pure F B","Read Pure F B",TUNA,FISH,Study1,F,25,43,STUDY,8,8,,Study/JOL,"Study Phase2",8000,,,-1,-1,,,,1
10106849,ywwqm2xl02,Nick_Dissertation_EX2_EP,1,134,2022-02-25T17:27:26+00:00,8.130350112915,4,Pure_Forward.csv,READVersionB.csv,"Read Pure F B","Read Pure F B",FAVORITE,BEST,Study1,F,75,25,STUDY,8,8,,Study/JOL,"Study Phase2",8000,,,-1,-1,,,,1
10106849,ywwqm2xl02,Nick_Dissertation_EX2_EP,1,135,2022-02-25T17:27:35+00:00,8.1315228939056,4,Pure_Forward.csv,READVersionB.csv,"Read Pure F B","Read Pure F B",BITTER,COLD,Study1,F,12,14,STUDY,8,8,,Study/JOL,"Study Phase2",8001,,,-1,-1,,,,1
10106849,ywwqm2xl02,Nick_Dissertation_EX2_EP,1,136,2022-02-25T17:27:43+00:00,8.1291620731354,4,Pure_Forward.csv,READVersionB.csv,"Read Pure F B","Read Pure F B",EDITOR,NEWS,Study1,F,10,35,STUDY,8,8,,Study/JOL,"Study Phase2",8001,,,-1,-1,,,,1
10106849,ywwqm2xl02,Nick_Dissertation_EX2_EP,1,137,2022-02-25T17:27:51+00:00,8.1185898780823,4,Pure_Forward.csv,READVersionB.csv,"Read Pure F B","Read Pure F B",DISCUSSION,TALK,Study1,F,21,23,STUDY,8,8,,Study/JOL,"Study Phase2",8001,,,-1,-1,,,,1
10106849,ywwqm2xl02,Nick_Dissertation_EX2_EP,1,138,2022-02-25T17:27:59+00:00,8.1168329715729,4,Pure_Forward.csv,READVersionB.csv,"Read Pure F B","Read Pure F B",BRAWL,FIGHT,Study1,F,85,20,STUDY,8,8,,Study/JOL,"Study Phase2",8000,,,-1,-1,,,,1
10106849,ywwqm2xl02,Nick_Dissertation_EX2_EP,1,139,2022-02-25T17:28:07+00:00,8.1350951194763,4,Pure_Forward.csv,READVersionB.csv,"Read Pure F B","Read Pure F B",BRIDGE,WATER,Study1,F,18,36,STUDY,8,8,,Study/JOL,"Study Phase2",8004,,,-1,-1,,,,1
10106849,ywwqm2xl02,Nick_Dissertation_EX2_EP,1,140,2022-02-25T17:28:15+00:00,8.1335718631744,4,Pure_Forward.csv,READVersionB.csv,"Read Pure F B","Read Pure F B",TRUTHFUL,HONEST,Study1,F,83,34,STUDY,8,8,,Study/JOL,"Study Phase2",8001,,,-1,-1,,,,1
10106849,ywwqm2xl02,Nick_Dissertation_EX2_EP,1,141,2022-02-25T17:28:23+00:00,8.1240420341492,4,Pure_Forward.csv,READVersionB.csv,"Read Pure F B","Read Pure F B",MALT,CHOCOLATE,BUFFER2,Buffer,88,47,STUDY,8,8,,Study/JOL,BUFFER4,8001,,,-1,-1,,,,1
10106849,ywwqm2xl02,Nick_Dissertation_EX2_EP,1,142,2022-02-25T17:28:31+00:00,8.1249570846558,4,Pure_Forward.csv,READVersionB.csv,"Read Pure F B","Read Pure F B",GEESE,GOOSE,BUFFER2,Buffer,86,51,STUDY,8,8,,Study/JOL,BUFFER4,8001,,,-1,-1,,,,1
10106849,ywwqm2xl02,Nick_Dissertation_EX2_EP,1,143,2022-02-25T17:28:40+00:00,8.1254940032959,4,Pure_Forward.csv,READVersionB.csv,"Read Pure F B","Read Pure F B",SHERRIF,POLICE,BUFFER2,Buffer,87,48,STUDY,8,8,,Study/JOL,BUFFER4,8003,,,-1,-1,,,,1
10106849,ywwqm2xl02,Nick_Dissertation_EX2_EP,1,144,2022-02-25T17:28:48+00:00,8.1315729618073,4,Pure_Forward.csv,READVersionB.csv,"Read Pure F B","Read Pure F B",MOON,SPACE,BUFFER2,Buffer,89,49,STUDY,8,8,,Study/JOL,BUFFER4,8001,,,-1,-1,,,,1
10106849,ywwqm2xl02,Nick_Dissertation_EX2_EP,1,145,2022-02-25T17:28:56+00:00,8.1302111148834,4,Pure_Forward.csv,READVersionB.csv,"Read Pure F B","Read Pure F B",THING,STUFF,BUFFER2,Buffer,90,50,STUDY,8,8,,Study/JOL,BUFFER4,8001,,,-1,-1,,,,1
