Username,ID,ExperimentName,Session,Trial,Date,TimeDif,"Condition Number","Stimuli File","Order File","Condition Description","Condition Notes",Stimuli*Cue,Stimuli*Answer,Stimuli*Shuffle,"Stimuli*Stimuli Notes",Stimuli*Value,Procedure*Item,"Procedure*Trial Type","Procedure*Max Time","Procedure*Min Time",Procedure*Text,"Procedure*Procedure Notes",Procedure*Shuffle,Response*RT,Response*Response,Response*Accuracy,Response*RTfirst,Response*RTlast,Response*strictAcc,Response*lenientAcc,Response*focus,Response*Focus
w10056664_JL,xyg8eticf3,Nick_Dissertation_EX2_EP,1,1,2022-05-05T19:37:56+00:00,13.061084032059,3,Pure_Forward.csv,READVersionA.csv,"Read Pure F A","Read Pure F A",,,,,,0,Instruct,-,10,"Please study each of the following word pairs. Remember that your memory will be tested! Each pair will be displayed on the computer screen and will automatically advance to the next pair. Press ENTER when you are ready to begin.",Initial_Instruct,Instruct1,12252,,,-1,-1,,,,1
w10056664_JL,xyg8eticf3,Nick_Dissertation_EX2_EP,1,2,2022-05-05T19:38:05+00:00,9.1089789867401,3,Pure_Forward.csv,READVersionA.csv,"Read Pure F A","Read Pure F A",PEANUT,BUTTER,BUFFER1,Buffer,3,4,STUDY,8,8,,Study/JOL,BUFFER,8010,,,-1,-1,,,,1
w10056664_JL,xyg8eticf3,Nick_Dissertation_EX2_EP,1,3,2022-05-05T19:38:13+00:00,8.4412410259247,3,Pure_Forward.csv,READVersionA.csv,"Read Pure F A","Read Pure F A",SCARE,HIDE,BUFFER1,Buffer,4,3,STUDY,8,8,,Study/JOL,BUFFER,8011,,,-1,-1,,,,1
w10056664_JL,xyg8eticf3,Nick_Dissertation_EX2_EP,1,4,2022-05-05T19:38:22+00:00,8.4466509819031,3,Pure_Forward.csv,READVersionA.csv,"Read Pure F A","Read Pure F A",TREES,GREEN,BUFFER1,Buffer,1,6,STUDY,8,8,,Study/JOL,BUFFER,8009,,,-1,-1,,,,1
w10056664_JL,xyg8eticf3,Nick_Dissertation_EX2_EP,1,5,2022-05-05T19:38:30+00:00,8.4340341091156,3,Pure_Forward.csv,READVersionA.csv,"Read Pure F A","Read Pure F A",SPACE,JAM,BUFFER1,Buffer,5,2,STUDY,8,8,,Study/JOL,BUFFER,8010,,,-1,-1,,,,1
w10056664_JL,xyg8eticf3,Nick_Dissertation_EX2_EP,1,6,2022-05-05T19:38:39+00:00,8.445307970047,3,Pure_Forward.csv,READVersionA.csv,"Read Pure F A","Read Pure F A",BASEBALL,CATCHER,BUFFER1,Buffer,2,5,STUDY,8,8,,Study/JOL,BUFFER,8010,,,-1,-1,,,,1
w10056664_JL,xyg8eticf3,Nick_Dissertation_EX2_EP,1,7,2022-05-05T19:38:47+00:00,8.4598698616028,3,Pure_Forward.csv,READVersionA.csv,"Read Pure F A","Read Pure F A",DISCUSSION,TALK,Study1,F,21,36,STUDY,8,8,,Study/JOL,"Study Phase",8012,,,-1,-1,,,,1
w10056664_JL,xyg8eticf3,Nick_Dissertation_EX2_EP,1,8,2022-05-05T19:38:56+00:00,8.4229161739349,3,Pure_Forward.csv,READVersionA.csv,"Read Pure F A","Read Pure F A",ACTRESS,STAR,Study1,F,70,14,STUDY,8,8,,Study/JOL,"Study Phase",8009,,,-1,-1,,,,1
w10056664_JL,xyg8eticf3,Nick_Dissertation_EX2_EP,1,9,2022-05-05T19:39:04+00:00,8.4691128730774,3,Pure_Forward.csv,READVersionA.csv,"Read Pure F A","Read Pure F A",BRAWL,FIGHT,Study1,F,85,28,STUDY,8,8,,Study/JOL,"Study Phase",8014,,,-1,-1,,,,1
w10056664_JL,xyg8eticf3,Nick_Dissertation_EX2_EP,1,10,2022-05-05T19:39:16+00:00,11.947657108307,3,Pure_Forward.csv,READVersionA.csv,"Read Pure F A","Read Pure F A",ROOT,PLANT,Study1,F,13,8,STUDY,8,8,,Study/JOL,"Study Phase",8010,,,-1,-1,,,,1
w10056664_JL,xyg8eticf3,Nick_Dissertation_EX2_EP,1,11,2022-05-05T19:39:26+00:00,10.261808872223,3,Pure_Forward.csv,READVersionA.csv,"Read Pure F A","Read Pure F A",HERD,COW,Study1,F,22,11,STUDY,8,8,,Study/JOL,"Study Phase",8010,,,-1,-1,,,,1
w10056664_JL,xyg8eticf3,Nick_Dissertation_EX2_EP,1,12,2022-05-05T19:39:59+00:00,32.532410144806,3,Pure_Forward.csv,READVersionA.csv,"Read Pure F A","Read Pure F A",PENGUIN,BIRD,Study1,F,69,21,STUDY,8,8,,Study/JOL,"Study Phase",8011,,,-1,-1,,,,1
w10056664_JL,xyg8eticf3,Nick_Dissertation_EX2_EP,1,13,2022-05-05T19:40:20+00:00,21.408948898315,3,Pure_Forward.csv,READVersionA.csv,"Read Pure F A","Read Pure F A",LEAGUE,BASEBALL,Study1,F,81,32,STUDY,8,8,,Study/JOL,"Study Phase",8011,,,-1,-1,,,,1
w10056664_JL,xyg8eticf3,Nick_Dissertation_EX2_EP,1,14,2022-05-05T19:40:41+00:00,20.331512928009,3,Pure_Forward.csv,READVersionA.csv,"Read Pure F A","Read Pure F A",EDITOR,NEWS,Study1,F,10,39,STUDY,8,8,,Study/JOL,"Study Phase",8011,,,-1,-1,,,,1
w10056664_JL,xyg8eticf3,Nick_Dissertation_EX2_EP,1,15,2022-05-05T19:40:50+00:00,9.5943610668182,3,Pure_Forward.csv,READVersionA.csv,"Read Pure F A","Read Pure F A",NAP,SLEEP,Study1,F,84,16,STUDY,8,8,,Study/JOL,"Study Phase",8011,,,-1,-1,,,,1
w10056664_JL,xyg8eticf3,Nick_Dissertation_EX2_EP,1,16,2022-05-05T19:40:59+00:00,9.067036151886,3,Pure_Forward.csv,READVersionA.csv,"Read Pure F A","Read Pure F A",BALLOON,POP,Study1,F,73,35,STUDY,8,8,,Study/JOL,"Study Phase",8008,,,-1,-1,,,,1
w10056664_JL,xyg8eticf3,Nick_Dissertation_EX2_EP,1,17,2022-05-05T19:41:08+00:00,8.8282778263092,3,Pure_Forward.csv,READVersionA.csv,"Read Pure F A","Read Pure F A",REVENGE,EVEN,Study1,F,72,43,STUDY,8,8,,Study/JOL,"Study Phase",8008,,,-1,-1,,,,1
w10056664_JL,xyg8eticf3,Nick_Dissertation_EX2_EP,1,18,2022-05-05T19:41:19+00:00,10.521093130112,3,Pure_Forward.csv,READVersionA.csv,"Read Pure F A","Read Pure F A",BITTER,COLD,Study1,F,12,20,STUDY,8,8,,Study/JOL,"Study Phase",8011,,,-1,-1,,,,1
w10056664_JL,xyg8eticf3,Nick_Dissertation_EX2_EP,1,19,2022-05-05T19:41:30+00:00,11.510850906372,3,Pure_Forward.csv,READVersionA.csv,"Read Pure F A","Read Pure F A",FAVORITE,BEST,Study1,F,75,45,STUDY,8,8,,Study/JOL,"Study Phase",8010,,,-1,-1,,,,1
w10056664_JL,xyg8eticf3,Nick_Dissertation_EX2_EP,1,20,2022-05-05T19:41:39+00:00,9.3601160049438,3,Pure_Forward.csv,READVersionA.csv,"Read Pure F A","Read Pure F A",AIRCRAFT,PLANE,Study1,F,79,9,STUDY,8,8,,Study/JOL,"Study Phase",8010,,,-1,-1,,,,1
w10056664_JL,xyg8eticf3,Nick_Dissertation_EX2_EP,1,21,2022-05-05T19:41:49+00:00,9.1406490802765,3,Pure_Forward.csv,READVersionA.csv,"Read Pure F A","Read Pure F A",DELINQUENT,BAD,Study1,F,6,30,STUDY,8,8,,Study/JOL,"Study Phase",8011,,,-1,-1,,,,1
w10056664_JL,xyg8eticf3,Nick_Dissertation_EX2_EP,1,22,2022-05-05T19:41:57+00:00,8.875205039978,3,Pure_Forward.csv,READVersionA.csv,"Read Pure F A","Read Pure F A",HYGIENE,CLEAN,Study1,F,17,25,STUDY,8,8,,Study/JOL,"Study Phase",8011,,,-1,-1,,,,1
w10056664_JL,xyg8eticf3,Nick_Dissertation_EX2_EP,1,23,2022-05-05T19:42:06+00:00,8.7256059646606,3,Pure_Forward.csv,READVersionA.csv,"Read Pure F A","Read Pure F A",REVOLUTION,WAR,Study1,F,20,41,STUDY,8,8,,Study/JOL,"Study Phase",8012,,,-1,-1,,,,0.852
w10056664_JL,xyg8eticf3,Nick_Dissertation_EX2_EP,1,24,2022-05-05T19:42:15+00:00,9.0831170082092,3,Pure_Forward.csv,READVersionA.csv,"Read Pure F A","Read Pure F A",SARDINE,FISH,Study1,F,80,27,STUDY,8,8,,Study/JOL,"Study Phase",8202,,,-1,-1,,,,0.333
w10056664_JL,xyg8eticf3,Nick_Dissertation_EX2_EP,1,25,2022-05-05T19:42:25+00:00,9.6046988964081,3,Pure_Forward.csv,READVersionA.csv,"Read Pure F A","Read Pure F A",THIMBLE,THREAD,Study1,F,71,42,STUDY,8,8,,Study/JOL,"Study Phase",8910,,,-1,-1,,,,0.647
w10056664_JL,xyg8eticf3,Nick_Dissertation_EX2_EP,1,26,2022-05-05T19:42:34+00:00,9.0674149990082,3,Pure_Forward.csv,READVersionA.csv,"Read Pure F A","Read Pure F A",GEOLOGY,ROCK,Study1,F,19,38,STUDY,8,8,,Study/JOL,"Study Phase",8010,,,-1,-1,,,,0.821
w10056664_JL,xyg8eticf3,Nick_Dissertation_EX2_EP,1,27,2022-05-05T19:42:43+00:00,8.6033720970154,3,Pure_Forward.csv,READVersionA.csv,"Read Pure F A","Read Pure F A",CREDIT,CARD,Study1,F,23,12,STUDY,8,8,,Study/JOL,"Study Phase",8009,,,-1,-1,,,,0.533
w10056664_JL,xyg8eticf3,Nick_Dissertation_EX2_EP,1,28,2022-05-05T19:42:53+00:00,10.647317886353,3,Pure_Forward.csv,READVersionA.csv,"Read Pure F A","Read Pure F A",STRAWBERRY,FRUIT,Study1,F,74,22,STUDY,8,8,,Study/JOL,"Study Phase",8637,,,-1,-1,,,,0.563
w10056664_JL,xyg8eticf3,Nick_Dissertation_EX2_EP,1,29,2022-05-05T19:43:03+00:00,9.5657501220703,3,Pure_Forward.csv,READVersionA.csv,"Read Pure F A","Read Pure F A",ORCHID,FLOWER,Study1,F,24,19,STUDY,8,8,,Study/JOL,"Study Phase",8992,,,-1,-1,,,,0
w10056664_JL,xyg8eticf3,Nick_Dissertation_EX2_EP,1,30,2022-05-05T19:43:12+00:00,9.1922338008881,3,Pure_Forward.csv,READVersionA.csv,"Read Pure F A","Read Pure F A",FLIP,TURN,Study1,F,66,46,STUDY,8,8,,Study/JOL,"Study Phase",8007,,,-1,-1,,,,0.857
w10056664_JL,xyg8eticf3,Nick_Dissertation_EX2_EP,1,31,2022-05-05T19:43:21+00:00,8.8284730911255,3,Pure_Forward.csv,READVersionA.csv,"Read Pure F A","Read Pure F A",BANKER,MONEY,Study1,F,82,24,STUDY,8,8,,Study/JOL,"Study Phase",8275,,,-1,-1,,,,0.429
w10056664_JL,xyg8eticf3,Nick_Dissertation_EX2_EP,1,32,2022-05-05T19:43:31+00:00,10.111753940582,3,Pure_Forward.csv,READVersionA.csv,"Read Pure F A","Read Pure F A",VILLAIN,BAD,Study1,F,68,7,STUDY,8,8,,Study/JOL,"Study Phase",8444,,,-1,-1,,,,0
w10056664_JL,xyg8eticf3,Nick_Dissertation_EX2_EP,1,33,2022-05-05T19:43:40+00:00,8.8067610263824,3,Pure_Forward.csv,READVersionA.csv,"Read Pure F A","Read Pure F A",WINDSHIELD,CAR,Study1,F,67,17,STUDY,8,8,,Study/JOL,"Study Phase",8052,,,-1,-1,,,,0
w10056664_JL,xyg8eticf3,Nick_Dissertation_EX2_EP,1,34,2022-05-05T19:43:49+00:00,8.9985930919647,3,Pure_Forward.csv,READVersionA.csv,"Read Pure F A","Read Pure F A",PAW,DOG,Study1,F,15,34,STUDY,8,8,,Study/JOL,"Study Phase",8537,,,-1,-1,,,,0
w10056664_JL,xyg8eticf3,Nick_Dissertation_EX2_EP,1,35,2022-05-05T19:43:58+00:00,8.9943220615387,3,Pure_Forward.csv,READVersionA.csv,"Read Pure F A","Read Pure F A",WAGE,MONEY,Study1,F,8,15,STUDY,8,8,,Study/JOL,"Study Phase",8544,,,-1,-1,,,,0
w10056664_JL,xyg8eticf3,Nick_Dissertation_EX2_EP,1,36,2022-05-05T19:44:06+00:00,8.4746589660645,3,Pure_Forward.csv,READVersionA.csv,"Read Pure F A","Read Pure F A",DIGESTION,STOMACH,Study1,F,7,40,STUDY,8,8,,Study/JOL,"Study Phase",8007,,,-1,-1,,,,0.769
w10056664_JL,xyg8eticf3,Nick_Dissertation_EX2_EP,1,37,2022-05-05T19:44:15+00:00,8.5271220207214,3,Pure_Forward.csv,READVersionA.csv,"Read Pure F A","Read Pure F A",COFFIN,DEAD,Study1,F,78,37,STUDY,8,8,,Study/JOL,"Study Phase",8092,,,-1,-1,,,,0.762
w10056664_JL,xyg8eticf3,Nick_Dissertation_EX2_EP,1,38,2022-05-05T19:44:24+00:00,8.9965329170227,3,Pure_Forward.csv,READVersionA.csv,"Read Pure F A","Read Pure F A",BREAKABLE,GLASS,Study1,F,77,10,STUDY,8,8,,Study/JOL,"Study Phase",8503,,,-1,-1,,,,0
w10056664_JL,xyg8eticf3,Nick_Dissertation_EX2_EP,1,39,2022-05-05T19:44:33+00:00,9.0047769546509,3,Pure_Forward.csv,READVersionA.csv,"Read Pure F A","Read Pure F A",WAY,OUT,Study1,F,16,44,STUDY,8,8,,Study/JOL,"Study Phase",8501,,,-1,-1,,,,0
w10056664_JL,xyg8eticf3,Nick_Dissertation_EX2_EP,1,40,2022-05-05T19:44:42+00:00,8.9915051460266,3,Pure_Forward.csv,READVersionA.csv,"Read Pure F A","Read Pure F A",TRUTHFUL,HONEST,Study1,F,83,26,STUDY,8,8,,Study/JOL,"Study Phase",8545,,,-1,-1,,,,0
w10056664_JL,xyg8eticf3,Nick_Dissertation_EX2_EP,1,41,2022-05-05T19:44:51+00:00,9.004234790802,3,Pure_Forward.csv,READVersionA.csv,"Read Pure F A","Read Pure F A",SWAN,BIRD,Study1,F,14,18,STUDY,8,8,,Study/JOL,"Study Phase",8505,,,-1,-1,,,,0
w10056664_JL,xyg8eticf3,Nick_Dissertation_EX2_EP,1,42,2022-05-05T19:45:15+00:00,24.289593219757,3,Pure_Forward.csv,READVersionA.csv,"Read Pure F A","Read Pure F A",HORNET,STING,Study1,F,11,29,STUDY,8,8,,Study/JOL,"Study Phase",8009,,,-1,-1,,,,0.921
w10056664_JL,xyg8eticf3,Nick_Dissertation_EX2_EP,1,43,2022-05-05T19:45:24+00:00,9.019514799118,3,Pure_Forward.csv,READVersionA.csv,"Read Pure F A","Read Pure F A",CHISEL,HAMMER,Study1,F,9,33,STUDY,8,8,,Study/JOL,"Study Phase",8012,,,-1,-1,,,,1
w10056664_JL,xyg8eticf3,Nick_Dissertation_EX2_EP,1,44,2022-05-05T19:45:32+00:00,8.4524130821228,3,Pure_Forward.csv,READVersionA.csv,"Read Pure F A","Read Pure F A",TUNA,FISH,Study1,F,25,31,STUDY,8,8,,Study/JOL,"Study Phase",8014,,,-1,-1,,,,1
w10056664_JL,xyg8eticf3,Nick_Dissertation_EX2_EP,1,45,2022-05-05T19:45:41+00:00,8.4363920688629,3,Pure_Forward.csv,READVersionA.csv,"Read Pure F A","Read Pure F A",BRIDGE,WATER,Study1,F,18,23,STUDY,8,8,,Study/JOL,"Study Phase",8012,,,-1,-1,,,,1
w10056664_JL,xyg8eticf3,Nick_Dissertation_EX2_EP,1,46,2022-05-05T19:45:49+00:00,8.4500799179077,3,Pure_Forward.csv,READVersionA.csv,"Read Pure F A","Read Pure F A",PANTHER,CAT,Study1,F,76,13,STUDY,8,8,,Study/JOL,"Study Phase",8011,,,-1,-1,,,,1
w10056664_JL,xyg8eticf3,Nick_Dissertation_EX2_EP,1,47,2022-05-05T19:45:58+00:00,8.490688085556,3,Pure_Forward.csv,READVersionA.csv,"Read Pure F A","Read Pure F A",MALT,CHOCOLATE,BUFFER2,Buffer,88,49,STUDY,8,8,,Study/JOL,BUFFER2,8010,,,-1,-1,,,,1
w10056664_JL,xyg8eticf3,Nick_Dissertation_EX2_EP,1,48,2022-05-05T19:46:06+00:00,8.4184260368347,3,Pure_Forward.csv,READVersionA.csv,"Read Pure F A","Read Pure F A",SHERRIF,POLICE,BUFFER2,Buffer,87,47,STUDY,8,8,,Study/JOL,BUFFER2,8009,,,-1,-1,,,,1
w10056664_JL,xyg8eticf3,Nick_Dissertation_EX2_EP,1,49,2022-05-05T19:46:15+00:00,8.4414188861847,3,Pure_Forward.csv,READVersionA.csv,"Read Pure F A","Read Pure F A",MOON,SPACE,BUFFER2,Buffer,89,50,STUDY,8,8,,Study/JOL,BUFFER2,8016,,,-1,-1,,,,1
w10056664_JL,xyg8eticf3,Nick_Dissertation_EX2_EP,1,50,2022-05-05T19:46:23+00:00,8.4969789981842,3,Pure_Forward.csv,READVersionA.csv,"Read Pure F A","Read Pure F A",THING,STUFF,BUFFER2,Buffer,90,48,STUDY,8,8,,Study/JOL,BUFFER2,8010,,,-1,-1,,,,1
w10056664_JL,xyg8eticf3,Nick_Dissertation_EX2_EP,1,51,2022-05-05T19:46:32+00:00,8.4477970600128,3,Pure_Forward.csv,READVersionA.csv,"Read Pure F A","Read Pure F A",GEESE,GOOSE,BUFFER2,Buffer,86,51,STUDY,8,8,,Study/JOL,BUFFER2,8012,,,-1,-1,,,,1
w10056664_JL,xyg8eticf3,Nick_Dissertation_EX2_EP,1,52,2022-05-05T19:46:36+00:00,4.4427239894867,3,Pure_Forward.csv,READVersionA.csv,"Read Pure F A","Read Pure F A",,,,,,0,Instruct,User,-,"You have completed this section. Please press Enter.",Filler_Instruction,Instruct2,4024,,,-1,-1,,,,1
w10056664_JL,xyg8eticf3,Nick_Dissertation_EX2_EP,1,53,2022-05-05T19:48:37+00:00,120.45925402641,3,Pure_Forward.csv,READVersionA.csv,"Read Pure F A","Read Pure F A",,,,,,0,FreeRecall,120,120,"Please list the 50 US states in alphabetical order. The task will automatically advance to the next screen after two minutes.",,Filler1,120011,"Alabama Arkansas Alaska Colorado Georgia Illinoise ",0,6284,117104,0,0,,0.983
w10056664_JL,xyg8eticf3,Nick_Dissertation_EX2_EP,1,54,2022-05-05T19:48:48+00:00,11.489761829376,3,Pure_Forward.csv,READVersionA.csv,"Read Pure F A","Read Pure F A",,,,,,0,Instruct,-,10,"You will now be presented with the first word from each of the previously studied item pairs. Please type the missing word. If you do not know the word, you may guess or press Enter to skip forward to the next pair.",,Instruct3,10692,,,-1,-1,,,,1
w10056664_JL,xyg8eticf3,Nick_Dissertation_EX2_EP,1,55,2022-05-05T19:48:52+00:00,4.0540130138397,3,Pure_Forward.csv,READVersionA.csv,"Read Pure F A","Read Pure F A",DISCUSSION,TALK,Study1,F,21,36,Test,User,-,,Recall,Recall1,3624,Talk,100,2476,3162,1,1,,1
w10056664_JL,xyg8eticf3,Nick_Dissertation_EX2_EP,1,56,2022-05-05T19:49:05+00:00,12.551556110382,3,Pure_Forward.csv,READVersionA.csv,"Read Pure F A","Read Pure F A",PAW,DOG,Study1,F,15,34,Test,User,-,,Recall,Recall1,12139,Dog,100,11202,11869,1,1,,1
w10056664_JL,xyg8eticf3,Nick_Dissertation_EX2_EP,1,57,2022-05-05T19:49:08+00:00,3.2981040477753,3,Pure_Forward.csv,READVersionA.csv,"Read Pure F A","Read Pure F A",CHISEL,HAMMER,Study1,F,9,33,Test,User,-,,Recall,Recall1,2852,Tip,0,1871,2451,0,0,,1
w10056664_JL,xyg8eticf3,Nick_Dissertation_EX2_EP,1,58,2022-05-05T19:49:12+00:00,4.3078379631042,3,Pure_Forward.csv,READVersionA.csv,"Read Pure F A","Read Pure F A",AIRCRAFT,PLANE,Study1,F,79,9,Test,User,-,,Recall,Recall1,3901,Plane,100,1105,3542,1,1,,1
w10056664_JL,xyg8eticf3,Nick_Dissertation_EX2_EP,1,59,2022-05-05T19:49:16+00:00,3.4326419830322,3,Pure_Forward.csv,READVersionA.csv,"Read Pure F A","Read Pure F A",BANKER,MONEY,Study1,F,82,24,Test,User,-,,Recall,Recall1,3041,Money,100,1642,2567,1,1,,1
w10056664_JL,xyg8eticf3,Nick_Dissertation_EX2_EP,1,60,2022-05-05T19:49:32+00:00,16.613601922989,3,Pure_Forward.csv,READVersionA.csv,"Read Pure F A","Read Pure F A",HORNET,STING,Study1,F,11,29,Test,User,-,,Recall,Recall1,16198,Sting,100,15029,15862,1,1,,1
w10056664_JL,xyg8eticf3,Nick_Dissertation_EX2_EP,1,61,2022-05-05T19:49:48+00:00,15.231017112732,3,Pure_Forward.csv,READVersionA.csv,"Read Pure F A","Read Pure F A",DELINQUENT,BAD,Study1,F,6,30,Test,User,-,,Recall,Recall1,14780,Bad,100,14011,14560,1,1,,1
w10056664_JL,xyg8eticf3,Nick_Dissertation_EX2_EP,1,62,2022-05-05T19:49:51+00:00,3.1753799915314,3,Pure_Forward.csv,READVersionA.csv,"Read Pure F A","Read Pure F A",CREDIT,CARD,Study1,F,23,12,Test,User,-,,Recall,Recall1,2358,Card,100,1450,2143,1,1,,1
w10056664_JL,xyg8eticf3,Nick_Dissertation_EX2_EP,1,63,2022-05-05T19:49:53+00:00,2.1208789348602,3,Pure_Forward.csv,READVersionA.csv,"Read Pure F A","Read Pure F A",BALLOON,POP,Study1,F,73,35,Test,User,-,,Recall,Recall1,1736,POp,100,1042,1314,1,1,,1
w10056664_JL,xyg8eticf3,Nick_Dissertation_EX2_EP,1,64,2022-05-05T19:49:57+00:00,3.8768711090088,3,Pure_Forward.csv,READVersionA.csv,"Read Pure F A","Read Pure F A",SARDINE,FISH,Study1,F,80,27,Test,User,-,,Recall,Recall1,3468,fish,100,2692,3131,1,1,,1
w10056664_JL,xyg8eticf3,Nick_Dissertation_EX2_EP,1,65,2022-05-05T19:50:00+00:00,3.7128608226776,3,Pure_Forward.csv,READVersionA.csv,"Read Pure F A","Read Pure F A",FLIP,TURN,Study1,F,66,46,Test,User,-,,Recall,Recall1,3322,over,25,2367,3013,0,0,,1
w10056664_JL,xyg8eticf3,Nick_Dissertation_EX2_EP,1,66,2022-05-05T19:50:07+00:00,7.0244030952454,3,Pure_Forward.csv,READVersionA.csv,"Read Pure F A","Read Pure F A",ORCHID,FLOWER,Study1,F,24,19,Test,User,-,,Recall,Recall1,6608,flower,100,5496,6327,1,1,,1
w10056664_JL,xyg8eticf3,Nick_Dissertation_EX2_EP,1,67,2022-05-05T19:50:13+00:00,5.6636300086975,3,Pure_Forward.csv,READVersionA.csv,"Read Pure F A","Read Pure F A",NAP,SLEEP,Study1,F,84,16,Test,User,-,,Recall,Recall1,5247,sleep,100,4158,4826,1,1,,1
w10056664_JL,xyg8eticf3,Nick_Dissertation_EX2_EP,1,68,2022-05-05T19:50:23+00:00,9.4024279117584,3,Pure_Forward.csv,READVersionA.csv,"Read Pure F A","Read Pure F A",VILLAIN,BAD,Study1,F,68,7,Test,User,-,,Recall,Recall1,8986,Bad,100,8194,8710,1,1,,1
w10056664_JL,xyg8eticf3,Nick_Dissertation_EX2_EP,1,69,2022-05-05T19:50:27+00:00,4.5796830654144,3,Pure_Forward.csv,READVersionA.csv,"Read Pure F A","Read Pure F A",REVENGE,EVEN,Study1,F,72,43,Test,User,-,,Recall,Recall1,4156,even,100,1506,3058,1,1,,1
w10056664_JL,xyg8eticf3,Nick_Dissertation_EX2_EP,1,70,2022-05-05T19:50:30+00:00,3.1717579364777,3,Pure_Forward.csv,READVersionA.csv,"Read Pure F A","Read Pure F A",PANTHER,CAT,Study1,F,76,13,Test,User,-,,Recall,Recall1,2766,paw,33.333333333333,1946,2299,0,0,,1
w10056664_JL,xyg8eticf3,Nick_Dissertation_EX2_EP,1,71,2022-05-05T19:50:33+00:00,2.9355170726776,3,Pure_Forward.csv,READVersionA.csv,"Read Pure F A","Read Pure F A",COFFIN,DEAD,Study1,F,78,37,Test,User,-,,Recall,Recall1,2541,dead,100,1320,1969,1,1,,1
w10056664_JL,xyg8eticf3,Nick_Dissertation_EX2_EP,1,72,2022-05-05T19:50:41+00:00,8.1269381046295,3,Pure_Forward.csv,READVersionA.csv,"Read Pure F A","Read Pure F A",HYGIENE,CLEAN,Study1,F,17,25,Test,User,-,,Recall,Recall1,7721,clean,100,6644,7426,1,1,,1
w10056664_JL,xyg8eticf3,Nick_Dissertation_EX2_EP,1,73,2022-05-05T19:50:44+00:00,2.9267928600311,3,Pure_Forward.csv,READVersionA.csv,"Read Pure F A","Read Pure F A",TUNA,FISH,Study1,F,25,31,Test,User,-,,Recall,Recall1,2516,fish,100,1412,2113,1,1,,1
w10056664_JL,xyg8eticf3,Nick_Dissertation_EX2_EP,1,74,2022-05-05T19:50:48+00:00,3.7340910434723,3,Pure_Forward.csv,READVersionA.csv,"Read Pure F A","Read Pure F A",FAVORITE,BEST,Study1,F,75,45,Test,User,-,,Recall,Recall1,3341,best,100,1900,2963,1,1,,1
w10056664_JL,xyg8eticf3,Nick_Dissertation_EX2_EP,1,75,2022-05-05T19:50:57+00:00,9.1908299922943,3,Pure_Forward.csv,READVersionA.csv,"Read Pure F A","Read Pure F A",HERD,COW,Study1,F,22,11,Test,User,-,,Recall,Recall1,8796,cow,100,7844,8247,1,1,,1
w10056664_JL,xyg8eticf3,Nick_Dissertation_EX2_EP,1,76,2022-05-05T19:51:32+00:00,35.239540100098,3,Pure_Forward.csv,READVersionA.csv,"Read Pure F A","Read Pure F A",EDITOR,NEWS,Study1,F,10,39,Test,User,-,,Recall,Recall1,34831,paper,22.222222222222,33900,34589,0,0,,1
w10056664_JL,xyg8eticf3,Nick_Dissertation_EX2_EP,1,77,2022-05-05T19:51:44+00:00,11.872000932693,3,Pure_Forward.csv,READVersionA.csv,"Read Pure F A","Read Pure F A",STRAWBERRY,FRUIT,Study1,F,74,22,Test,User,-,,Recall,Recall1,11438,milk,22.222222222222,10103,10818,0,0,,1
w10056664_JL,xyg8eticf3,Nick_Dissertation_EX2_EP,1,78,2022-05-05T19:52:17+00:00,32.861514091492,3,Pure_Forward.csv,READVersionA.csv,"Read Pure F A","Read Pure F A",PENGUIN,BIRD,Study1,F,69,21,Test,User,-,,Recall,Recall1,32043,bird,100,30517,31365,1,1,,1
w10056664_JL,xyg8eticf3,Nick_Dissertation_EX2_EP,1,79,2022-05-05T19:53:19+00:00,62.24807882309,3,Pure_Forward.csv,READVersionA.csv,"Read Pure F A","Read Pure F A",BITTER,COLD,Study1,F,12,20,Test,User,-,,Recall,Recall1,61425,sour,25,7333,61128,0,0,,1
w10056664_JL,xyg8eticf3,Nick_Dissertation_EX2_EP,1,80,2022-05-05T19:53:48+00:00,28.776600122452,3,Pure_Forward.csv,READVersionA.csv,"Read Pure F A","Read Pure F A",BRAWL,FIGHT,Study1,F,85,28,Test,User,-,,Recall,Recall1,27931,fight,100,27149,27668,1,1,,1
w10056664_JL,xyg8eticf3,Nick_Dissertation_EX2_EP,1,81,2022-05-05T19:54:17+00:00,28.473309993744,3,Pure_Forward.csv,READVersionA.csv,"Read Pure F A","Read Pure F A",THIMBLE,THREAD,Study1,F,71,42,Test,User,-,,Recall,Recall1,28068,thread,100,26972,27878,1,1,,1
w10056664_JL,xyg8eticf3,Nick_Dissertation_EX2_EP,1,82,2022-05-05T19:54:29+00:00,12.690191984177,3,Pure_Forward.csv,READVersionA.csv,"Read Pure F A","Read Pure F A",SWAN,BIRD,Study1,F,14,18,Test,User,-,,Recall,Recall1,11870,lake,0,11158,11676,0,0,,1
w10056664_JL,xyg8eticf3,Nick_Dissertation_EX2_EP,1,83,2022-05-05T19:54:42+00:00,13.001014947891,3,Pure_Forward.csv,READVersionA.csv,"Read Pure F A","Read Pure F A",ROOT,PLANT,Study1,F,13,8,Test,User,-,,Recall,Recall1,12162,plant,100,11360,11895,1,1,,1
w10056664_JL,xyg8eticf3,Nick_Dissertation_EX2_EP,1,84,2022-05-05T19:54:45+00:00,2.4850299358368,3,Pure_Forward.csv,READVersionA.csv,"Read Pure F A","Read Pure F A",TRUTHFUL,HONEST,Study1,F,83,26,Test,User,-,,Recall,Recall1,2079,lies,40,1389,1934,0,0,,1
w10056664_JL,xyg8eticf3,Nick_Dissertation_EX2_EP,1,85,2022-05-05T19:54:53+00:00,8.2808151245117,3,Pure_Forward.csv,READVersionA.csv,"Read Pure F A","Read Pure F A",ACTRESS,STAR,Study1,F,70,14,Test,User,-,,Recall,Recall1,7868,pretty,20,6495,7639,0,0,,1
w10056664_JL,xyg8eticf3,Nick_Dissertation_EX2_EP,1,86,2022-05-05T19:55:07+00:00,13.618340969086,3,Pure_Forward.csv,READVersionA.csv,"Read Pure F A","Read Pure F A",REVOLUTION,WAR,Study1,F,20,41,Test,User,-,,Recall,Recall1,12813,war,100,12164,12571,1,1,,1
w10056664_JL,xyg8eticf3,Nick_Dissertation_EX2_EP,1,87,2022-05-05T19:55:45+00:00,38.548315048218,3,Pure_Forward.csv,READVersionA.csv,"Read Pure F A","Read Pure F A",BREAKABLE,GLASS,Study1,F,77,10,Test,User,-,,Recall,Recall1,37730,fragile,16.666666666667,36408,37553,0,0,,1
w10056664_JL,xyg8eticf3,Nick_Dissertation_EX2_EP,1,88,2022-05-05T19:55:49+00:00,3.5993919372559,3,Pure_Forward.csv,READVersionA.csv,"Read Pure F A","Read Pure F A",LEAGUE,BASEBALL,Study1,F,81,32,Test,User,-,,Recall,Recall1,2768,baseball,100,1119,2463,1,1,,1
w10056664_JL,xyg8eticf3,Nick_Dissertation_EX2_EP,1,89,2022-05-05T20:04:56+00:00,547.27192497253,3,Pure_Forward.csv,READVersionA.csv,"Read Pure F A","Read Pure F A",WINDSHIELD,CAR,Study1,F,67,17,Test,User,-,,Recall,Recall1,546851,car,100,546150,546578,1,1,,0.059
w10056664_JL,xyg8eticf3,Nick_Dissertation_EX2_EP,1,90,2022-05-05T20:04:59+00:00,3.2078740596771,3,Pure_Forward.csv,READVersionA.csv,"Read Pure F A","Read Pure F A",GEOLOGY,ROCK,Study1,F,19,38,Test,User,-,,Recall,Recall1,2339,rocks,88.888888888889,1386,2102,0,1,,1
w10056664_JL,xyg8eticf3,Nick_Dissertation_EX2_EP,1,91,2022-05-05T20:05:03+00:00,3.3600680828094,3,Pure_Forward.csv,READVersionA.csv,"Read Pure F A","Read Pure F A",DIGESTION,STOMACH,Study1,F,7,40,Test,User,-,,Recall,Recall1,2956,stomach,100,1601,2622,1,1,,1
w10056664_JL,xyg8eticf3,Nick_Dissertation_EX2_EP,1,92,2022-05-05T20:05:06+00:00,2.8414239883423,3,Pure_Forward.csv,READVersionA.csv,"Read Pure F A","Read Pure F A",BRIDGE,WATER,Study1,F,18,23,Test,User,-,,Recall,Recall1,2437,water,100,1174,2164,1,1,,1
w10056664_JL,xyg8eticf3,Nick_Dissertation_EX2_EP,1,93,2022-05-05T20:05:08+00:00,2.6756618022919,3,Pure_Forward.csv,READVersionA.csv,"Read Pure F A","Read Pure F A",WAGE,MONEY,Study1,F,8,15,Test,User,-,,Recall,Recall1,2295,money,100,1216,1936,1,1,,1
w10056664_JL,xyg8eticf3,Nick_Dissertation_EX2_EP,1,94,2022-05-05T20:05:12+00:00,3.5369441509247,3,Pure_Forward.csv,READVersionA.csv,"Read Pure F A","Read Pure F A",WAY,OUT,Study1,F,16,44,Test,User,-,,Recall,Recall1,3144,fair,0,1915,2922,0,0,,1
w10056664_JL,xyg8eticf3,Nick_Dissertation_EX2_EP,1,95,2022-05-05T20:05:24+00:00,11.876399040222,3,Pure_Forward.csv,READVersionA.csv,"Read Pure F A","Read Pure F A",,,,,,0,Instruct,-,10,"You will now be presented with a new set of word pairs. Please study each pair. Remember that your memory will be tested! Each pair will be displayed on the computer screen and will automatically advance to the next pair. Press ENTER when you are ready to begin.",Initial_Instruct,Instruct4,11487,,,-1,-1,,,,1
w10056664_JL,xyg8eticf3,Nick_Dissertation_EX2_EP,1,96,2022-05-05T20:05:32+00:00,8.4353868961334,3,Pure_Forward.csv,READVersionA.csv,"Read Pure F A","Read Pure F A",CAMP,ADVENTURE,BUFFER3,Buffer,95,52,STUDY,8,8,,Study/JOL,BUFFER3,8008,,,-1,-1,,,,1
w10056664_JL,xyg8eticf3,Nick_Dissertation_EX2_EP,1,97,2022-05-05T20:05:40+00:00,8.4079849720001,3,Pure_Forward.csv,READVersionA.csv,"Read Pure F A","Read Pure F A",ICE,FROZEN,BUFFER3,Buffer,94,55,STUDY,8,8,,Study/JOL,BUFFER3,8006,,,-1,-1,,,,1
w10056664_JL,xyg8eticf3,Nick_Dissertation_EX2_EP,1,98,2022-05-05T20:05:49+00:00,8.417820930481,3,Pure_Forward.csv,READVersionA.csv,"Read Pure F A","Read Pure F A",SHRIMP,FISH,BUFFER3,Buffer,93,53,STUDY,8,8,,Study/JOL,BUFFER3,8008,,,-1,-1,,,,1
w10056664_JL,xyg8eticf3,Nick_Dissertation_EX2_EP,1,99,2022-05-05T20:05:57+00:00,8.4157161712646,3,Pure_Forward.csv,READVersionA.csv,"Read Pure F A","Read Pure F A",NOODLE,STRING,BUFFER3,Buffer,92,56,STUDY,8,8,,Study/JOL,BUFFER3,8007,,,-1,-1,,,,1
w10056664_JL,xyg8eticf3,Nick_Dissertation_EX2_EP,1,100,2022-05-05T20:06:06+00:00,8.4138770103455,3,Pure_Forward.csv,READVersionA.csv,"Read Pure F A","Read Pure F A",CARROT,POTATO,BUFFER3,Buffer,91,54,STUDY,8,8,,Study/JOL,BUFFER3,8008,,,-1,-1,,,,1
w10056664_JL,xyg8eticf3,Nick_Dissertation_EX2_EP,1,101,2022-05-05T20:06:14+00:00,8.409157037735,3,Pure_Forward.csv,READVersionA.csv,"Read Pure F A","Read Pure F A",CHILL,COLD,Study2,F,174,71,STUDY,8,8,,Study/JOL,"Study Phase2",8007,,,-1,-1,,,,1
w10056664_JL,xyg8eticf3,Nick_Dissertation_EX2_EP,1,102,2022-05-05T20:06:23+00:00,8.5634789466858,3,Pure_Forward.csv,READVersionA.csv,"Read Pure F A","Read Pure F A",SIP,DRINK,Study2,F,97,92,STUDY,8,8,,Study/JOL,"Study Phase2",8137,,,-1,-1,,,,0.909
w10056664_JL,xyg8eticf3,Nick_Dissertation_EX2_EP,1,103,2022-05-05T20:06:32+00:00,9.0025608539581,3,Pure_Forward.csv,READVersionA.csv,"Read Pure F A","Read Pure F A",DRIVER,CAR,Study2,F,166,59,STUDY,8,8,,Study/JOL,"Study Phase2",8569,,,-1,-1,,,,0.815
w10056664_JL,xyg8eticf3,Nick_Dissertation_EX2_EP,1,104,2022-05-05T20:06:40+00:00,8.4532201290131,3,Pure_Forward.csv,READVersionA.csv,"Read Pure F A","Read Pure F A",SHOELACE,TIE,Study2,F,159,86,STUDY,8,8,,Study/JOL,"Study Phase2",8007,,,-1,-1,,,,0.917
w10056664_JL,xyg8eticf3,Nick_Dissertation_EX2_EP,1,105,2022-05-05T20:06:49+00:00,8.4178409576416,3,Pure_Forward.csv,READVersionA.csv,"Read Pure F A","Read Pure F A",CHILI,HOT,Study2,F,107,96,STUDY,8,8,,Study/JOL,"Study Phase2",8007,,,-1,-1,,,,1
w10056664_JL,xyg8eticf3,Nick_Dissertation_EX2_EP,1,106,2022-05-05T20:06:57+00:00,8.4076309204102,3,Pure_Forward.csv,READVersionA.csv,"Read Pure F A","Read Pure F A",CAVE,DARK,Study2,F,98,74,STUDY,8,8,,Study/JOL,"Study Phase2",8007,,,-1,-1,,,,1
w10056664_JL,xyg8eticf3,Nick_Dissertation_EX2_EP,1,107,2022-05-05T20:07:05+00:00,8.426735162735,3,Pure_Forward.csv,READVersionA.csv,"Read Pure F A","Read Pure F A",DOCUMENT,PAPER,Study2,F,169,79,STUDY,8,8,,Study/JOL,"Study Phase2",8007,,,-1,-1,,,,1
w10056664_JL,xyg8eticf3,Nick_Dissertation_EX2_EP,1,108,2022-05-05T20:07:14+00:00,8.4183168411255,3,Pure_Forward.csv,READVersionA.csv,"Read Pure F A","Read Pure F A",MULE,DONKEY,Study2,F,168,90,STUDY,8,8,,Study/JOL,"Study Phase2",8007,,,-1,-1,,,,1
w10056664_JL,xyg8eticf3,Nick_Dissertation_EX2_EP,1,109,2022-05-05T20:07:22+00:00,8.4023950099945,3,Pure_Forward.csv,READVersionA.csv,"Read Pure F A","Read Pure F A",ENOUGH,FULL,Study2,F,96,62,STUDY,8,8,,Study/JOL,"Study Phase2",8007,,,-1,-1,,,,1
w10056664_JL,xyg8eticf3,Nick_Dissertation_EX2_EP,1,110,2022-05-05T20:07:31+00:00,8.43244099617,3,Pure_Forward.csv,READVersionA.csv,"Read Pure F A","Read Pure F A",INCENSE,SMELL,Study2,F,170,70,STUDY,8,8,,Study/JOL,"Study Phase2",8008,,,-1,-1,,,,1
w10056664_JL,xyg8eticf3,Nick_Dissertation_EX2_EP,1,111,2022-05-05T20:07:39+00:00,8.4285969734192,3,Pure_Forward.csv,READVersionA.csv,"Read Pure F A","Read Pure F A",SEIZE,TAKE,Study2,F,99,66,STUDY,8,8,,Study/JOL,"Study Phase2",8005,,,-1,-1,,,,1
w10056664_JL,xyg8eticf3,Nick_Dissertation_EX2_EP,1,112,2022-05-05T20:07:48+00:00,8.4284620285034,3,Pure_Forward.csv,READVersionA.csv,"Read Pure F A","Read Pure F A",CHERRY,RED,Study2,F,164,89,STUDY,8,8,,Study/JOL,"Study Phase2",8006,,,-1,-1,,,,1
w10056664_JL,xyg8eticf3,Nick_Dissertation_EX2_EP,1,113,2022-05-05T20:07:56+00:00,8.4170241355896,3,Pure_Forward.csv,READVersionA.csv,"Read Pure F A","Read Pure F A",FAMINE,HUNGER,Study2,F,110,69,STUDY,8,8,,Study/JOL,"Study Phase2",8009,,,-1,-1,,,,1
w10056664_JL,xyg8eticf3,Nick_Dissertation_EX2_EP,1,114,2022-05-05T20:08:04+00:00,8.4069800376892,3,Pure_Forward.csv,READVersionA.csv,"Read Pure F A","Read Pure F A",FEUD,FIGHT,Study2,F,173,88,STUDY,8,8,,Study/JOL,"Study Phase2",8005,,,-1,-1,,,,1
w10056664_JL,xyg8eticf3,Nick_Dissertation_EX2_EP,1,115,2022-05-05T20:08:13+00:00,8.4270730018616,3,Pure_Forward.csv,READVersionA.csv,"Read Pure F A","Read Pure F A",FANTASTIC,GREAT,Study2,F,105,57,STUDY,8,8,,Study/JOL,"Study Phase2",8007,,,-1,-1,,,,1
w10056664_JL,xyg8eticf3,Nick_Dissertation_EX2_EP,1,116,2022-05-05T20:08:21+00:00,8.4271378517151,3,Pure_Forward.csv,READVersionA.csv,"Read Pure F A","Read Pure F A",AFFECTION,LOVE,Study2,F,175,95,STUDY,8,8,,Study/JOL,"Study Phase2",8007,,,-1,-1,,,,1
w10056664_JL,xyg8eticf3,Nick_Dissertation_EX2_EP,1,117,2022-05-05T20:08:30+00:00,8.4087040424347,3,Pure_Forward.csv,READVersionA.csv,"Read Pure F A","Read Pure F A",ATTORNEY,LAW,Study2,F,104,64,STUDY,8,8,,Study/JOL,"Study Phase2",8006,,,-1,-1,,,,1
w10056664_JL,xyg8eticf3,Nick_Dissertation_EX2_EP,1,118,2022-05-05T20:08:38+00:00,8.4191749095917,3,Pure_Forward.csv,READVersionA.csv,"Read Pure F A","Read Pure F A",CLUE,GAME,Study2,F,157,76,STUDY,8,8,,Study/JOL,"Study Phase2",8009,,,-1,-1,,,,1
w10056664_JL,xyg8eticf3,Nick_Dissertation_EX2_EP,1,119,2022-05-05T20:08:46+00:00,8.4149241447449,3,Pure_Forward.csv,READVersionA.csv,"Read Pure F A","Read Pure F A",DIVISION,MATH,Study2,F,103,63,STUDY,8,8,,Study/JOL,"Study Phase2",8007,,,-1,-1,,,,1
w10056664_JL,xyg8eticf3,Nick_Dissertation_EX2_EP,1,120,2022-05-05T20:08:55+00:00,8.4166419506073,3,Pure_Forward.csv,READVersionA.csv,"Read Pure F A","Read Pure F A",WASP,BUG,Study2,F,102,82,STUDY,8,8,,Study/JOL,"Study Phase2",8008,,,-1,-1,,,,1
w10056664_JL,xyg8eticf3,Nick_Dissertation_EX2_EP,1,121,2022-05-05T20:09:03+00:00,8.4064331054688,3,Pure_Forward.csv,READVersionA.csv,"Read Pure F A","Read Pure F A",LITTER,TRASH,Study2,F,163,91,STUDY,8,8,,Study/JOL,"Study Phase2",8008,,,-1,-1,,,,1
w10056664_JL,xyg8eticf3,Nick_Dissertation_EX2_EP,1,122,2022-05-05T20:09:12+00:00,8.4183897972107,3,Pure_Forward.csv,READVersionA.csv,"Read Pure F A","Read Pure F A",CHOP,CUT,Study2,F,167,77,STUDY,8,8,,Study/JOL,"Study Phase2",8007,,,-1,-1,,,,1
w10056664_JL,xyg8eticf3,Nick_Dissertation_EX2_EP,1,123,2022-05-05T20:09:21+00:00,9.0236270427704,3,Pure_Forward.csv,READVersionA.csv,"Read Pure F A","Read Pure F A",DRIVER,CAR,Study2,F,166,59,STUDY,8,8,,Study/JOL,"Study Phase2",8611,,,-1,-1,,,,0.611
w10056664_JL,xyg8eticf3,Nick_Dissertation_EX2_EP,1,124,2022-05-05T20:09:30+00:00,9.0051879882812,3,Pure_Forward.csv,READVersionA.csv,"Read Pure F A","Read Pure F A",CHORE,WORK,Study2,F,109,73,STUDY,8,8,,Study/JOL,"Study Phase2",8581,,,-1,-1,,,,0
w10056664_JL,xyg8eticf3,Nick_Dissertation_EX2_EP,1,125,2022-05-05T20:09:39+00:00,8.9941389560699,3,Pure_Forward.csv,READVersionA.csv,"Read Pure F A","Read Pure F A",ADJOURN,END,Study2,F,161,94,STUDY,8,8,,Study/JOL,"Study Phase2",8564,,,-1,-1,,,,0
w10056664_JL,xyg8eticf3,Nick_Dissertation_EX2_EP,1,126,2022-05-05T20:09:48+00:00,9.0075340270996,3,Pure_Forward.csv,READVersionA.csv,"Read Pure F A","Read Pure F A",STENCH,SMELL,Study2,F,112,72,STUDY,8,8,,Study/JOL,"Study Phase2",8590,,,-1,-1,,,,0
w10056664_JL,xyg8eticf3,Nick_Dissertation_EX2_EP,1,127,2022-05-05T20:09:57+00:00,8.9974730014801,3,Pure_Forward.csv,READVersionA.csv,"Read Pure F A","Read Pure F A",GROWTH,HEIGHT,Study2,F,100,61,STUDY,8,8,,Study/JOL,"Study Phase2",8556,,,-1,-1,,,,0
w10056664_JL,xyg8eticf3,Nick_Dissertation_EX2_EP,1,128,2022-05-05T20:10:06+00:00,8.9936220645905,3,Pure_Forward.csv,READVersionA.csv,"Read Pure F A","Read Pure F A",ATTIRE,CLOTHES,Study2,F,113,67,STUDY,8,8,,Study/JOL,"Study Phase2",8580,,,-1,-1,,,,0
w10056664_JL,xyg8eticf3,Nick_Dissertation_EX2_EP,1,129,2022-05-05T20:10:15+00:00,9.0006968975067,3,Pure_Forward.csv,READVersionA.csv,"Read Pure F A","Read Pure F A",BRIDGE,WATER,Study1,F,18,23,STUDY,8,8,,Study/JOL,"Study Phase2",8537,,,-1,-1,,,,0
w10056664_JL,xyg8eticf3,Nick_Dissertation_EX2_EP,1,130,2022-05-05T20:10:24+00:00,9.0000691413879,3,Pure_Forward.csv,READVersionA.csv,"Read Pure F A","Read Pure F A",LATCH,KEY,Study2,F,106,78,STUDY,8,8,,Study/JOL,"Study Phase2",8605,,,-1,-1,,,,0
w10056664_JL,xyg8eticf3,Nick_Dissertation_EX2_EP,1,131,2022-05-05T20:10:33+00:00,8.9998209476471,3,Pure_Forward.csv,READVersionA.csv,"Read Pure F A","Read Pure F A",SHEARS,SCISSORS,Study2,F,172,84,STUDY,8,8,,Study/JOL,"Study Phase2",8585,,,-1,-1,,,,0
w10056664_JL,xyg8eticf3,Nick_Dissertation_EX2_EP,1,132,2022-05-05T20:10:42+00:00,9.0031371116638,3,Pure_Forward.csv,READVersionA.csv,"Read Pure F A","Read Pure F A",RACKET,BALL,Study2,F,108,65,STUDY,8,8,,Study/JOL,"Study Phase2",8585,,,-1,-1,,,,0
w10056664_JL,xyg8eticf3,Nick_Dissertation_EX2_EP,1,133,2022-05-05T20:10:51+00:00,8.9972898960114,3,Pure_Forward.csv,READVersionA.csv,"Read Pure F A","Read Pure F A",DETECTIVE,MYSTERY,Study2,F,160,93,STUDY,8,8,,Study/JOL,"Study Phase2",8594,,,-1,-1,,,,0
w10056664_JL,xyg8eticf3,Nick_Dissertation_EX2_EP,1,134,2022-05-05T20:11:00+00:00,8.9957730770111,3,Pure_Forward.csv,READVersionA.csv,"Read Pure F A","Read Pure F A",WORD,SENTENCE,Study2,F,101,85,STUDY,8,8,,Study/JOL,"Study Phase2",8556,,,-1,-1,,,,0
w10056664_JL,xyg8eticf3,Nick_Dissertation_EX2_EP,1,135,2022-05-05T20:11:09+00:00,8.9999918937683,3,Pure_Forward.csv,READVersionA.csv,"Read Pure F A","Read Pure F A",DROWSY,SLEEP,Study2,F,111,68,STUDY,8,8,,Study/JOL,"Study Phase2",8568,,,-1,-1,,,,0
w10056664_JL,xyg8eticf3,Nick_Dissertation_EX2_EP,1,136,2022-05-05T20:11:18+00:00,9.0079879760742,3,Pure_Forward.csv,READVersionA.csv,"Read Pure F A","Read Pure F A",DINE,EAT,Study2,F,171,75,STUDY,8,8,,Study/JOL,"Study Phase2",8577,,,-1,-1,,,,0
w10056664_JL,xyg8eticf3,Nick_Dissertation_EX2_EP,1,137,2022-05-05T20:11:27+00:00,9.0015821456909,3,Pure_Forward.csv,READVersionA.csv,"Read Pure F A","Read Pure F A",SCALP,HEAD,Study2,F,165,80,STUDY,8,8,,Study/JOL,"Study Phase2",8562,,,-1,-1,,,,0
w10056664_JL,xyg8eticf3,Nick_Dissertation_EX2_EP,1,138,2022-05-05T20:11:36+00:00,9.0082838535309,3,Pure_Forward.csv,READVersionA.csv,"Read Pure F A","Read Pure F A",FURRY,DOG,Study2,F,162,81,STUDY,8,8,,Study/JOL,"Study Phase2",8561,,,-1,-1,,,,0
w10056664_JL,xyg8eticf3,Nick_Dissertation_EX2_EP,1,139,2022-05-05T20:11:45+00:00,8.9868769645691,3,Pure_Forward.csv,READVersionA.csv,"Read Pure F A","Read Pure F A",EXTENSION,LONG,Study2,F,156,60,STUDY,8,8,,Study/JOL,"Study Phase2",8528,,,-1,-1,,,,0.429
w10056664_JL,xyg8eticf3,Nick_Dissertation_EX2_EP,1,140,2022-05-05T20:11:54+00:00,8.9931960105896,3,Pure_Forward.csv,READVersionA.csv,"Read Pure F A","Read Pure F A",BLAZE,FIRE,Study2,F,115,87,STUDY,8,8,,Study/JOL,"Study Phase2",8582,,,-1,-1,,,,0
w10056664_JL,xyg8eticf3,Nick_Dissertation_EX2_EP,1,141,2022-05-05T20:12:03+00:00,9.0055420398712,3,Pure_Forward.csv,READVersionA.csv,"Read Pure F A","Read Pure F A",OCTOBER,SPOOKY,BUFFER4,Buffer,180,100,STUDY,8,8,,Study/JOL,BUFFER4,8442,,,-1,-1,,,,0
w10056664_JL,xyg8eticf3,Nick_Dissertation_EX2_EP,1,142,2022-05-05T20:12:11+00:00,8.4529120922089,3,Pure_Forward.csv,READVersionA.csv,"Read Pure F A","Read Pure F A",SPRING,MARCH,BUFFER4,Buffer,179,98,STUDY,8,8,,Study/JOL,BUFFER4,8006,,,-1,-1,,,,0.308
w10056664_JL,xyg8eticf3,Nick_Dissertation_EX2_EP,1,143,2022-05-05T20:12:20+00:00,8.5437040328979,3,Pure_Forward.csv,READVersionA.csv,"Read Pure F A","Read Pure F A",TOOL,SHED,BUFFER4,Buffer,178,101,STUDY,8,8,,Study/JOL,BUFFER4,8104,,,-1,-1,,,,0
w10056664_JL,xyg8eticf3,Nick_Dissertation_EX2_EP,1,144,2022-05-05T20:12:29+00:00,9.0116958618164,3,Pure_Forward.csv,READVersionA.csv,"Read Pure F A","Read Pure F A",MONTH,YEAR,BUFFER4,Buffer,177,97,STUDY,8,8,,Study/JOL,BUFFER4,8174,,,-1,-1,,,,0
w10056664_JL,xyg8eticf3,Nick_Dissertation_EX2_EP,1,145,2022-05-05T20:12:38+00:00,8.9982299804688,3,Pure_Forward.csv,READVersionA.csv,"Read Pure F A","Read Pure F A",DAYS,WEEKS,BUFFER4,Buffer,176,99,STUDY,8,8,,Study/JOL,BUFFER4,8546,,,-1,-1,,,,0
w10056664_JL,xyg8eticf3,Nick_Dissertation_EX2_EP,1,146,2022-05-05T20:20:47+00:00,489.10718607903,3,Pure_Forward.csv,READVersionA.csv,"Read Pure F A","Read Pure F A",,,,,,0,Instruct,User,-,"You have completed this section. Please press Enter.",Filler_Instruction,Instruct5,488613,,,-1,-1,,,,0.028
w10056664_JL,xyg8eticf3,Nick_Dissertation_EX2_EP,1,147,2022-05-05T20:22:47+00:00,120.55539011955,3,Pure_Forward.csv,READVersionA.csv,"Read Pure F A","Read Pure F A",,,,,,0,FreeRecall,120,120,"Please list the 50 US states in reverse alphabetical order (z - a). The task will automatically advance to the next screen after two minutes.",,Filler2,120013,"Wyoming Washington Oregon Ohio New Hampshire New Mexico New Jersey New York Mississippi Montana ",0,10271,119625,0,0,,1
w10056664_JL,xyg8eticf3,Nick_Dissertation_EX2_EP,1,148,2022-05-05T20:23:01+00:00,13.910883903503,3,Pure_Forward.csv,READVersionA.csv,"Read Pure F A","Read Pure F A",,,,,,0,Instruct,-,10,"You will now be presented with the first word from each of the previously studied item pairs. Please type the missing word. If you do not know the word, you may guess or press Enter to skip forward to the next pair.",,Instruct6,13033,,,-1,-1,,,,1
w10056664_JL,xyg8eticf3,Nick_Dissertation_EX2_EP,1,149,2022-05-05T20:23:13+00:00,11.450042009354,3,Pure_Forward.csv,READVersionA.csv,"Read Pure F A","Read Pure F A",LITTER,TRASH,Study2,F,163,91,Test,User,-,,Recall,Recall2,11016,cat,25,5892,10380,0,0,,1
w10056664_JL,xyg8eticf3,Nick_Dissertation_EX2_EP,1,150,2022-05-05T20:23:16+00:00,3.7552309036255,3,Pure_Forward.csv,READVersionA.csv,"Read Pure F A","Read Pure F A",DOCUMENT,PAPER,Study2,F,169,79,Test,User,-,,Recall,Recall2,3339,government,26.666666666667,1752,3077,0,0,,1
w10056664_JL,xyg8eticf3,Nick_Dissertation_EX2_EP,1,151,2022-05-05T20:23:21+00:00,4.8023061752319,3,Pure_Forward.csv,READVersionA.csv,"Read Pure F A","Read Pure F A",ENOUGH,FULL,Study2,F,96,62,Test,User,-,,Recall,Recall2,4403,you,28.571428571429,3801,4073,0,0,,1
w10056664_JL,xyg8eticf3,Nick_Dissertation_EX2_EP,1,152,2022-05-05T20:23:26+00:00,4.9094099998474,3,Pure_Forward.csv,READVersionA.csv,"Read Pure F A","Read Pure F A",EXTENSION,LONG,Study2,F,156,60,Test,User,-,,Recall,Recall2,4512,please,20,2159,2939,0,0,,1
w10056664_JL,xyg8eticf3,Nick_Dissertation_EX2_EP,1,153,2022-05-05T20:23:33+00:00,6.9108448028564,3,Pure_Forward.csv,READVersionA.csv,"Read Pure F A","Read Pure F A",AFFECTION,LOVE,Study2,F,175,95,Test,User,-,,Recall,Recall2,6511,attention,15.384615384615,2122,4607,0,0,,1
w10056664_JL,xyg8eticf3,Nick_Dissertation_EX2_EP,1,154,2022-05-05T20:23:37+00:00,3.4995160102844,3,Pure_Forward.csv,READVersionA.csv,"Read Pure F A","Read Pure F A",CHOP,CUT,Study2,F,167,77,Test,User,-,,Recall,Recall2,2663,chop,28.571428571429,1274,1860,0,0,,1
w10056664_JL,xyg8eticf3,Nick_Dissertation_EX2_EP,1,155,2022-05-05T20:23:47+00:00,10.373876094818,3,Pure_Forward.csv,READVersionA.csv,"Read Pure F A","Read Pure F A",FEUD,FIGHT,Study2,F,173,88,Test,User,-,,Recall,Recall2,9949,Europe,0,2978,8371,0,0,,1
w10056664_JL,xyg8eticf3,Nick_Dissertation_EX2_EP,1,156,2022-05-05T20:23:55+00:00,7.6496140956879,3,Pure_Forward.csv,READVersionA.csv,"Read Pure F A","Read Pure F A",WASP,BUG,Study2,F,102,82,Test,User,-,,Recall,Recall2,6804,Hymenoptera,0,2971,5854,0,0,,1
w10056664_JL,xyg8eticf3,Nick_Dissertation_EX2_EP,1,157,2022-05-05T20:23:58+00:00,2.927649974823,3,Pure_Forward.csv,READVersionA.csv,"Read Pure F A","Read Pure F A",LATCH,KEY,Study2,F,106,78,Test,User,-,,Recall,Recall2,2481,Door,0,1382,1775,0,0,,1
w10056664_JL,xyg8eticf3,Nick_Dissertation_EX2_EP,1,158,2022-05-05T20:24:02+00:00,4.5680868625641,3,Pure_Forward.csv,READVersionA.csv,"Read Pure F A","Read Pure F A",MULE,DONKEY,Study2,F,168,90,Test,User,-,,Recall,Recall2,3765,Donkey,100,1646,3384,1,1,,1
w10056664_JL,xyg8eticf3,Nick_Dissertation_EX2_EP,1,159,2022-05-05T20:24:11+00:00,8.8635711669922,3,Pure_Forward.csv,READVersionA.csv,"Read Pure F A","Read Pure F A",ATTORNEY,LAW,Study2,F,104,64,Test,User,-,,Recall,Recall2,8460,Lawyer,66.666666666667,5473,7124,0,0,,1
w10056664_JL,xyg8eticf3,Nick_Dissertation_EX2_EP,1,160,2022-05-05T20:24:15+00:00,4.1989688873291,3,Pure_Forward.csv,READVersionA.csv,"Read Pure F A","Read Pure F A",CLUE,GAME,Study2,F,157,76,Test,User,-,,Recall,Recall2,3738,Game,100,2687,3190,1,1,,1
w10056664_JL,xyg8eticf3,Nick_Dissertation_EX2_EP,1,161,2022-05-05T20:24:21+00:00,5.9879899024963,3,Pure_Forward.csv,READVersionA.csv,"Read Pure F A","Read Pure F A",CHERRY,RED,Study2,F,164,89,Test,User,-,,Recall,Recall2,5554,tree,57.142857142857,4241,4879,0,0,,1
w10056664_JL,xyg8eticf3,Nick_Dissertation_EX2_EP,1,162,2022-05-05T20:24:24+00:00,3.2338860034943,3,Pure_Forward.csv,READVersionA.csv,"Read Pure F A","Read Pure F A",CHILL,COLD,Study2,F,174,71,Test,User,-,,Recall,Recall2,2827,cold,100,2208,2630,1,1,,1
w10056664_JL,xyg8eticf3,Nick_Dissertation_EX2_EP,1,163,2022-05-05T20:24:28+00:00,3.6967730522156,3,Pure_Forward.csv,READVersionA.csv,"Read Pure F A","Read Pure F A",SIP,DRINK,Study2,F,97,92,Test,User,-,,Recall,Recall2,3267,drink,100,1997,2781,1,1,,1
w10056664_JL,xyg8eticf3,Nick_Dissertation_EX2_EP,1,164,2022-05-05T20:24:31+00:00,2.5534210205078,3,Pure_Forward.csv,READVersionA.csv,"Read Pure F A","Read Pure F A",DINE,EAT,Study2,F,171,75,Test,User,-,,Recall,Recall2,2143,food,0,1315,1684,0,0,,1
w10056664_JL,xyg8eticf3,Nick_Dissertation_EX2_EP,1,165,2022-05-05T20:24:35+00:00,4.4657790660858,3,Pure_Forward.csv,READVersionA.csv,"Read Pure F A","Read Pure F A",DROWSY,SLEEP,Study2,F,111,68,Test,User,-,,Recall,Recall2,4038,tired,20,2453,3316,0,0,,1
w10056664_JL,xyg8eticf3,Nick_Dissertation_EX2_EP,1,166,2022-05-05T20:24:48+00:00,13.35995388031,3,Pure_Forward.csv,READVersionA.csv,"Read Pure F A","Read Pure F A",FAMINE,HUNGER,Study2,F,110,69,Test,User,-,,Recall,Recall2,12942,hunger,100,10832,11489,1,1,,1
w10056664_JL,xyg8eticf3,Nick_Dissertation_EX2_EP,1,167,2022-05-05T20:24:56+00:00,7.1398730278015,3,Pure_Forward.csv,READVersionA.csv,"Read Pure F A","Read Pure F A",FURRY,DOG,Study2,F,162,81,Test,User,-,,Recall,Recall2,6700,animal,0,4970,6399,0,0,,1
w10056664_JL,xyg8eticf3,Nick_Dissertation_EX2_EP,1,168,2022-05-05T20:24:58+00:00,2.2984139919281,3,Pure_Forward.csv,READVersionA.csv,"Read Pure F A","Read Pure F A",DRIVER,CAR,Study2,F,166,59,Test,User,-,,Recall,Recall2,1882,car,100,1296,1581,1,1,,1
w10056664_JL,xyg8eticf3,Nick_Dissertation_EX2_EP,1,169,2022-05-05T20:25:03+00:00,4.9145181179047,3,Pure_Forward.csv,READVersionA.csv,"Read Pure F A","Read Pure F A",CHILI,HOT,Study2,F,107,96,Test,User,-,,Recall,Recall2,4084,spicy,0,2260,3006,0,0,,1
w10056664_JL,xyg8eticf3,Nick_Dissertation_EX2_EP,1,170,2022-05-05T20:25:09+00:00,5.7975389957428,3,Pure_Forward.csv,READVersionA.csv,"Read Pure F A","Read Pure F A",FANTASTIC,GREAT,Study2,F,105,57,Test,User,-,,Recall,Recall2,5378,good,22.222222222222,4291,5173,0,0,,1
w10056664_JL,xyg8eticf3,Nick_Dissertation_EX2_EP,1,171,2022-05-05T20:25:12+00:00,3.1232240200043,3,Pure_Forward.csv,READVersionA.csv,"Read Pure F A","Read Pure F A",SHEARS,SCISSORS,Study2,F,172,84,Test,User,-,,Recall,Recall2,2699,cut,18.181818181818,2212,2558,0,0,,1
w10056664_JL,xyg8eticf3,Nick_Dissertation_EX2_EP,1,172,2022-05-05T20:25:21+00:00,9.5285999774933,3,Pure_Forward.csv,READVersionA.csv,"Read Pure F A","Read Pure F A",SEIZE,TAKE,Study2,F,99,66,Test,User,-,,Recall,Recall2,9083,grab,25,7799,8815,0,0,,1
w10056664_JL,xyg8eticf3,Nick_Dissertation_EX2_EP,1,173,2022-05-05T20:25:24+00:00,2.7610108852386,3,Pure_Forward.csv,READVersionA.csv,"Read Pure F A","Read Pure F A",ADJOURN,END,Study2,F,161,94,Test,User,-,,Recall,Recall2,2338,end,100,1807,2197,1,1,,1
w10056664_JL,xyg8eticf3,Nick_Dissertation_EX2_EP,1,174,2022-05-05T20:25:28+00:00,3.5572211742401,3,Pure_Forward.csv,READVersionA.csv,"Read Pure F A","Read Pure F A",RACKET,BALL,Study2,F,108,65,Test,User,-,,Recall,Recall2,3137,tennis,0,1901,2962,0,0,,1
w10056664_JL,xyg8eticf3,Nick_Dissertation_EX2_EP,1,175,2022-05-05T20:25:32+00:00,4.3517019748688,3,Pure_Forward.csv,READVersionA.csv,"Read Pure F A","Read Pure F A",BRIDGE,WATER,Study1,F,18,23,Test,User,-,,Recall,Recall2,3935,water,100,1976,3707,1,1,,1
w10056664_JL,xyg8eticf3,Nick_Dissertation_EX2_EP,1,176,2022-05-05T20:25:36+00:00,3.6795399188995,3,Pure_Forward.csv,READVersionA.csv,"Read Pure F A","Read Pure F A",STENCH,SMELL,Study2,F,112,72,Test,User,-,,Recall,Recall2,3242,smell,100,1498,3028,1,1,,1
w10056664_JL,xyg8eticf3,Nick_Dissertation_EX2_EP,1,177,2022-05-05T20:25:40+00:00,4.5053780078888,3,Pure_Forward.csv,READVersionA.csv,"Read Pure F A","Read Pure F A",CHORE,WORK,Study2,F,109,73,Test,User,-,,Recall,Recall2,4093,clean,0,2117,3772,0,0,,1
w10056664_JL,xyg8eticf3,Nick_Dissertation_EX2_EP,1,178,2022-05-05T20:25:43+00:00,2.826770067215,3,Pure_Forward.csv,READVersionA.csv,"Read Pure F A","Read Pure F A",DIVISION,MATH,Study2,F,103,63,Test,User,-,,Recall,Recall2,2418,divide,0,1535,2244,0,0,,1
w10056664_JL,xyg8eticf3,Nick_Dissertation_EX2_EP,1,179,2022-05-05T20:25:46+00:00,3.372298002243,3,Pure_Forward.csv,READVersionA.csv,"Read Pure F A","Read Pure F A",DRIVER,CAR,Study2,F,166,59,Test,User,-,,Recall,Recall2,2971,car,100,2360,2687,1,1,,1
w10056664_JL,xyg8eticf3,Nick_Dissertation_EX2_EP,1,180,2022-05-05T20:26:01+00:00,14.511905908585,3,Pure_Forward.csv,READVersionA.csv,"Read Pure F A","Read Pure F A",GROWTH,HEIGHT,Study2,F,100,61,Test,User,-,,Recall,Recall2,14090,growth,33.333333333333,9354,13801,0,0,,1
w10056664_JL,xyg8eticf3,Nick_Dissertation_EX2_EP,1,181,2022-05-05T20:26:06+00:00,5.1480009555817,3,Pure_Forward.csv,READVersionA.csv,"Read Pure F A","Read Pure F A",WORD,SENTENCE,Study2,F,101,85,Test,User,-,,Recall,Recall2,4638,sentance,87.5,1968,3349,0,1,,1
w10056664_JL,xyg8eticf3,Nick_Dissertation_EX2_EP,1,182,2022-05-05T20:26:11+00:00,4.8069040775299,3,Pure_Forward.csv,READVersionA.csv,"Read Pure F A","Read Pure F A",DETECTIVE,MYSTERY,Study2,F,160,93,Test,User,-,,Recall,Recall2,4382,attourney,37.5,1994,3439,0,0,,1
w10056664_JL,xyg8eticf3,Nick_Dissertation_EX2_EP,1,183,2022-05-05T20:26:14+00:00,3.0470449924469,3,Pure_Forward.csv,READVersionA.csv,"Read Pure F A","Read Pure F A",BLAZE,FIRE,Study2,F,115,87,Test,User,-,,Recall,Recall2,2240,fire,100,1561,2004,1,1,,1
w10056664_JL,xyg8eticf3,Nick_Dissertation_EX2_EP,1,184,2022-05-05T20:26:23+00:00,8.8128230571747,3,Pure_Forward.csv,READVersionA.csv,"Read Pure F A","Read Pure F A",INCENSE,SMELL,Study2,F,170,70,Test,User,-,,Recall,Recall2,8391,perfume,33.333333333333,2783,7771,0,0,,1
w10056664_JL,xyg8eticf3,Nick_Dissertation_EX2_EP,1,185,2022-05-05T20:26:29+00:00,6.2575089931488,3,Pure_Forward.csv,READVersionA.csv,"Read Pure F A","Read Pure F A",SHOELACE,TIE,Study2,F,159,86,Test,User,-,,Recall,Recall2,5791,aglet,25,4382,5162,0,0,,1
w10056664_JL,xyg8eticf3,Nick_Dissertation_EX2_EP,1,186,2022-05-05T20:26:33+00:00,3.9267280101776,3,Pure_Forward.csv,READVersionA.csv,"Read Pure F A","Read Pure F A",CAVE,DARK,Study2,F,98,74,Test,User,-,,Recall,Recall2,3488,cavern,40,2232,3167,0,0,,1
w10056664_JL,xyg8eticf3,Nick_Dissertation_EX2_EP,1,187,2022-05-05T20:26:36+00:00,3.1122558116913,3,Pure_Forward.csv,READVersionA.csv,"Read Pure F A","Read Pure F A",ATTIRE,CLOTHES,Study2,F,113,67,Test,User,-,,Recall,Recall2,2707,dress,33.333333333333,1765,2544,0,0,,1
w10056664_JL,xyg8eticf3,Nick_Dissertation_EX2_EP,1,188,2022-05-05T20:26:46+00:00,9.7998821735382,3,Pure_Forward.csv,READVersionA.csv,"Read Pure F A","Read Pure F A",SCALP,HEAD,Study2,F,165,80,Test,User,-,,Recall,Recall2,9377,hair,50,2095,9100,0,0,,1
w10056664_JL,xyg8eticf3,Nick_Dissertation_EX2_EP,1,189,2022-05-05T20:26:48+00:00,2.4150938987732,3,Pure_Forward.csv,READVersionA.csv,"Read Pure F A","Read Pure F A",,,,,,0,Instruct,User,-,"You have completed this section. Please press Enter.",,Instruct7,1887,,,-1,-1,,,,1
w10056664_JL,xyg8eticf3,Nick_Dissertation_EX2_EP,1,190,2022-05-05T20:26:55+00:00,6.5358469486237,3,Pure_Forward.csv,READVersionA.csv,"Read Pure F A","Read Pure F A",,,,,,0,Instruct,User,-,"The following screen will ask you a few questions abour your experience today. You must complete these questions to receive credit.",,Instruct8,6114,,,-1,-1,,,,1
