Username,ID,ExperimentName,Session,Trial,Date,TimeDif,"Condition Number","Stimuli File","Order File","Condition Description","Condition Notes",Stimuli*Cue,Stimuli*Answer,Stimuli*Shuffle,"Stimuli*Stimuli Notes",Stimuli*Value,Procedure*Item,"Procedure*Trial Type","Procedure*Max Time","Procedure*Min Time",Procedure*Text,"Procedure*Procedure Notes",Procedure*Shuffle,"Procedure*Post 1 Item","Procedure*Post 1 Trial Type","Procedure*Post 1 Max Time","Procedure*Post 1 Min Time",Procedure*,"Procedure*Post 1 Text",Response*RT,Response*Response,Response*Accuracy,Response*RTfirst,Response*RTlast,Response*strictAcc,Response*lenientAcc,Response*focus,Response*post1_JOL,Response*post1_RT,Response*post1_RTfirst,Response*post1_RTlast,Response*Focus,Response*post1_Focus
w10068562,9q4t049746,Nick_Dissertation_EX2_EP,1,1,2022-04-21T16:17:14+00:00,10.085490226746,9,Pure_Forward.csv,FREQVersionA.csv,"Freq Pure F A","Freq Pure F A",,,,,,0,Instruct,-,5,"In this section, you will be presented with a series of word pairs.",Initial_Instruct,Instruct1,,No,,,,,10013,,,-1,-1,,,,,,,,1
w10068562,9q4t049746,Nick_Dissertation_EX2_EP,1,2,2022-04-21T16:17:31+00:00,16.077305793762,9,Pure_Forward.csv,FREQVersionA.csv,"Freq Pure F A","Freq Pure F A",,,,,,0,Instruct,-,5,"As you study, you will be asked to rate how often the words in each pair are used together, using a 0-100 scale.",,Instruct13,,No,,,,,15973,,,-1,-1,,,,,,,,1
w10068562,9q4t049746,Nick_Dissertation_EX2_EP,1,3,2022-04-21T16:17:41+00:00,10.909550189972,9,Pure_Forward.csv,FREQVersionA.csv,"Freq Pure F A","Freq Pure F A",,,,,,0,Instruct,-,10,"For example, if you are given the pair CAT - DOG, a rating of 0 indicates that the words DOG and CAT are not used together often in language, while a rating of 100 indicates that DOG and CAT are commonly used together.",,Instruct14,,No,,,,,10807,,,-1,-1,,,,,,,,1
w10068562,9q4t049746,Nick_Dissertation_EX2_EP,1,4,2022-04-21T16:17:57+00:00,15.947387933731,9,Pure_Forward.csv,FREQVersionA.csv,"Freq Pure F A","Freq Pure F A",,,,,,0,Instruct,-,15,"When making your ratings, it is criticial that you use the full range of the scale. You will be disqualified for only giving ratings of 0 or 100! Each word will be displayed on the computer screen for 4 seconds. You will then have 4 seconds to make your rating. The screen will automatically move to the next pair when time is up.",,Instruct15,,No,,,,,15848,,,-1,-1,,,,,,,,1
w10068562,9q4t049746,Nick_Dissertation_EX2_EP,1,5,2022-04-21T16:18:05+00:00,7.3125698566437,9,Pure_Forward.csv,FREQVersionA.csv,"Freq Pure F A","Freq Pure F A",,,,,,0,Instruct,User,-,"You will now begin the study. Press Enter when you are ready to begin.",,Instruct16,,No,,,,,7213,,,-1,-1,,,,,,,,1
w10068562,9q4t049746,Nick_Dissertation_EX2_EP,1,6,2022-04-21T16:18:14+00:00,9.204026222229,9,Pure_Forward.csv,FREQVersionA.csv,"Freq Pure F A","Freq Pure F A",SCARE,HIDE,BUFFER1,Buffer,4,6,Study,4,4,,Study/JOL,BUFFER,6,FREQ,5,5,,"How often are these two words used together?|Type your response on a scale from 0-100 and then press Enter.",4001,,,-1,-1,,,,,5005,-1,-1,1,1
w10068562,9q4t049746,Nick_Dissertation_EX2_EP,1,7,2022-04-21T16:18:23+00:00,9.2026598453522,9,Pure_Forward.csv,FREQVersionA.csv,"Freq Pure F A","Freq Pure F A",BASEBALL,CATCHER,BUFFER1,Buffer,2,2,Study,4,4,,Study/JOL,BUFFER,2,FREQ,5,5,,"How often are these two words used together?|Type your response on a scale from 0-100 and then press Enter.",4007,,,-1,-1,,,,98,5005,974,1193,1,1
w10068562,9q4t049746,Nick_Dissertation_EX2_EP,1,8,2022-04-21T16:18:32+00:00,9.1931481361389,9,Pure_Forward.csv,FREQVersionA.csv,"Freq Pure F A","Freq Pure F A",TREES,GREEN,BUFFER1,Buffer,1,3,Study,4,4,,Study/JOL,BUFFER,3,FREQ,5,5,,"How often are these two words used together?|Type your response on a scale from 0-100 and then press Enter.",4002,,,-1,-1,,,,100,5007,728,1040,1,1
w10068562,9q4t049746,Nick_Dissertation_EX2_EP,1,9,2022-04-21T16:18:42+00:00,9.200642824173,9,Pure_Forward.csv,FREQVersionA.csv,"Freq Pure F A","Freq Pure F A",SPACE,JAM,BUFFER1,Buffer,5,4,Study,4,4,,Study/JOL,BUFFER,4,FREQ,5,5,,"How often are these two words used together?|Type your response on a scale from 0-100 and then press Enter.",4000,,,-1,-1,,,,50,5006,2008,2084,1,1
w10068562,9q4t049746,Nick_Dissertation_EX2_EP,1,10,2022-04-21T16:18:51+00:00,9.2017831802368,9,Pure_Forward.csv,FREQVersionA.csv,"Freq Pure F A","Freq Pure F A",PEANUT,BUTTER,BUFFER1,Buffer,3,5,Study,4,4,,Study/JOL,BUFFER,5,FREQ,5,5,,"How often are these two words used together?|Type your response on a scale from 0-100 and then press Enter.",4002,,,-1,-1,,,,100,5006,1443,1709,1,1
w10068562,9q4t049746,Nick_Dissertation_EX2_EP,1,11,2022-04-21T16:19:00+00:00,9.1934390068054,9,Pure_Forward.csv,FREQVersionA.csv,"Freq Pure F A","Freq Pure F A",BALLOON,POP,Study1,F,73,21,Study,4,4,,Study/JOL,"Study Phase",21,FREQ,5,5,,"How often are these two words used together?|Type your response on a scale from 0-100 and then press Enter.",4002,,,-1,-1,,,,98,5006,2778,2952,1,1
w10068562,9q4t049746,Nick_Dissertation_EX2_EP,1,12,2022-04-21T16:19:09+00:00,9.1865558624268,9,Pure_Forward.csv,FREQVersionA.csv,"Freq Pure F A","Freq Pure F A",CREDIT,CARD,Study1,F,23,32,Study,4,4,,Study/JOL,"Study Phase",32,FREQ,5,5,,"How often are these two words used together?|Type your response on a scale from 0-100 and then press Enter.",4001,,,-1,-1,,,,100,5005,1381,1674,1,1
w10068562,9q4t049746,Nick_Dissertation_EX2_EP,1,13,2022-04-21T16:19:18+00:00,9.1880249977112,9,Pure_Forward.csv,FREQVersionA.csv,"Freq Pure F A","Freq Pure F A",HORNET,STING,Study1,F,11,29,Study,4,4,,Study/JOL,"Study Phase",29,FREQ,5,5,,"How often are these two words used together?|Type your response on a scale from 0-100 and then press Enter.",4002,,,-1,-1,,,,88,5006,1348,1514,1,1
w10068562,9q4t049746,Nick_Dissertation_EX2_EP,1,14,2022-04-21T16:19:27+00:00,9.1869380474091,9,Pure_Forward.csv,FREQVersionA.csv,"Freq Pure F A","Freq Pure F A",VILLAIN,BAD,Study1,F,68,31,Study,4,4,,Study/JOL,"Study Phase",31,FREQ,5,5,,"How often are these two words used together?|Type your response on a scale from 0-100 and then press Enter.",4000,,,-1,-1,,,,100,5007,1189,1445,1,1
w10068562,9q4t049746,Nick_Dissertation_EX2_EP,1,15,2022-04-21T16:19:37+00:00,9.1940400600433,9,Pure_Forward.csv,FREQVersionA.csv,"Freq Pure F A","Freq Pure F A",COFFIN,DEAD,Study1,F,78,20,Study,4,4,,Study/JOL,"Study Phase",20,FREQ,5,5,,"How often are these two words used together?|Type your response on a scale from 0-100 and then press Enter.",4002,,,-1,-1,,,,100,5005,988,1529,1,1
w10068562,9q4t049746,Nick_Dissertation_EX2_EP,1,16,2022-04-21T16:19:46+00:00,9.2028830051422,9,Pure_Forward.csv,FREQVersionA.csv,"Freq Pure F A","Freq Pure F A",PAW,DOG,Study1,F,15,39,Study,4,4,,Study/JOL,"Study Phase",39,FREQ,5,5,,"How often are these two words used together?|Type your response on a scale from 0-100 and then press Enter.",4001,,,-1,-1,,,,75,5006,2128,2346,1,1
w10068562,9q4t049746,Nick_Dissertation_EX2_EP,1,17,2022-04-21T16:19:55+00:00,9.2020418643951,9,Pure_Forward.csv,FREQVersionA.csv,"Freq Pure F A","Freq Pure F A",WINDSHIELD,CAR,Study1,F,67,9,Study,4,4,,Study/JOL,"Study Phase",9,FREQ,5,5,,"How often are these two words used together?|Type your response on a scale from 0-100 and then press Enter.",4002,,,-1,-1,,,,50,5006,4017,4263,1,1
w10068562,9q4t049746,Nick_Dissertation_EX2_EP,1,18,2022-04-21T16:20:04+00:00,9.3372941017151,9,Pure_Forward.csv,FREQVersionA.csv,"Freq Pure F A","Freq Pure F A",WAGE,MONEY,Study1,F,8,41,Study,4,4,,Study/JOL,"Study Phase",41,FREQ,5,5,,"How often are these two words used together?|Type your response on a scale from 0-100 and then press Enter.",4002,,,-1,-1,,,,90,5005,798,971,1,1
w10068562,9q4t049746,Nick_Dissertation_EX2_EP,1,19,2022-04-21T16:20:14+00:00,9.3246140480042,9,Pure_Forward.csv,FREQVersionA.csv,"Freq Pure F A","Freq Pure F A",THIMBLE,THREAD,Study1,F,71,42,Study,4,4,,Study/JOL,"Study Phase",42,FREQ,5,5,,"How often are these two words used together?|Type your response on a scale from 0-100 and then press Enter.",4002,,,-1,-1,,,,30,5006,3408,3502,1,1
w10068562,9q4t049746,Nick_Dissertation_EX2_EP,1,20,2022-04-21T16:20:23+00:00,9.1915719509125,9,Pure_Forward.csv,FREQVersionA.csv,"Freq Pure F A","Freq Pure F A",NAP,SLEEP,Study1,F,84,26,Study,4,4,,Study/JOL,"Study Phase",26,FREQ,5,5,,"How often are these two words used together?|Type your response on a scale from 0-100 and then press Enter.",4002,,,-1,-1,,,,30,5006,2381,2485,1,1
w10068562,9q4t049746,Nick_Dissertation_EX2_EP,1,21,2022-04-21T16:20:32+00:00,9.1876649856567,9,Pure_Forward.csv,FREQVersionA.csv,"Freq Pure F A","Freq Pure F A",BREAKABLE,GLASS,Study1,F,77,24,Study,4,4,,Study/JOL,"Study Phase",24,FREQ,5,5,,"How often are these two words used together?|Type your response on a scale from 0-100 and then press Enter.",4001,,,-1,-1,,,,88,5004,3871,4497,1,1
w10068562,9q4t049746,Nick_Dissertation_EX2_EP,1,22,2022-04-21T16:20:41+00:00,9.1890139579773,9,Pure_Forward.csv,FREQVersionA.csv,"Freq Pure F A","Freq Pure F A",TUNA,FISH,Study1,F,25,10,Study,4,4,,Study/JOL,"Study Phase",10,FREQ,5,5,,"How often are these two words used together?|Type your response on a scale from 0-100 and then press Enter.",4001,,,-1,-1,,,,90,5005,1807,2090,1,1
