Username,ID,ExperimentName,Session,Trial,Date,TimeDif,"Condition Number","Stimuli File","Order File","Condition Description","Condition Notes",Stimuli*Cue,Stimuli*Answer,Stimuli*Shuffle,"Stimuli*Stimuli Notes",Stimuli*Value,Procedure*Item,"Procedure*Trial Type","Procedure*Max Time","Procedure*Min Time",Procedure*Text,"Procedure*Procedure Notes",Procedure*Shuffle,Response*RT,Response*Response,Response*Accuracy,Response*RTfirst,Response*RTlast,Response*strictAcc,Response*lenientAcc,Response*focus,Response*Focus
W10098703_CMK,f6mvyf1n9i,Nick_Dissertation_EX2_EP,1,1,2022-01-09T02:05:15+00:00,18.3585729599,2,Mixed_Stim.csv,READVersionB.csv,"Read Mixed B","Read Mixed B",,,,,,0,Instruct,-,10,"Please study each of the following word pairs. Remember that your memory will be tested! Each pair will be displayed on the computer screen and will automatically advance to the next pair. Press ENTER when you are ready to begin.",Initial_Instruct,Instruct1,18080,,,-1,-1,,,,1
W10098703_CMK,f6mvyf1n9i,Nick_Dissertation_EX2_EP,1,2,2022-01-09T02:05:23+00:00,8.3374691009521,2,Mixed_Stim.csv,READVersionB.csv,"Read Mixed B","Read Mixed B",ICE,FROZEN,BUFFER3,Buffer,94,52,STUDY,8,8,,Study/JOL,BUFFER,8005,,,-1,-1,,,,1
W10098703_CMK,f6mvyf1n9i,Nick_Dissertation_EX2_EP,1,3,2022-01-09T02:05:32+00:00,8.6085579395294,2,Mixed_Stim.csv,READVersionB.csv,"Read Mixed B","Read Mixed B",SHRIMP,FISH,BUFFER3,Buffer,93,55,STUDY,8,8,,Study/JOL,BUFFER,8001,,,-1,-1,,,,1
W10098703_CMK,f6mvyf1n9i,Nick_Dissertation_EX2_EP,1,4,2022-01-09T02:05:40+00:00,8.6931340694427,2,Mixed_Stim.csv,READVersionB.csv,"Read Mixed B","Read Mixed B",CAMP,ADVENTURE,BUFFER3,Buffer,95,53,STUDY,8,8,,Study/JOL,BUFFER,8002,,,-1,-1,,,,1
W10098703_CMK,f6mvyf1n9i,Nick_Dissertation_EX2_EP,1,5,2022-01-09T02:05:49+00:00,8.4497079849243,2,Mixed_Stim.csv,READVersionB.csv,"Read Mixed B","Read Mixed B",CARROT,POTATO,BUFFER3,Buffer,91,54,STUDY,8,8,,Study/JOL,BUFFER,8002,,,-1,-1,,,,1
W10098703_CMK,f6mvyf1n9i,Nick_Dissertation_EX2_EP,1,6,2022-01-09T02:05:57+00:00,8.771861076355,2,Mixed_Stim.csv,READVersionB.csv,"Read Mixed B","Read Mixed B",NOODLE,STRING,BUFFER3,Buffer,92,56,STUDY,8,8,,Study/JOL,BUFFER,8002,,,-1,-1,,,,1
W10098703_CMK,f6mvyf1n9i,Nick_Dissertation_EX2_EP,1,7,2022-01-09T02:06:06+00:00,8.3894078731537,2,Mixed_Stim.csv,READVersionB.csv,"Read Mixed B","Read Mixed B",TEMPERATURE,Morning,Study2,U,173,57,STUDY,8,8,,Study/JOL,"Study Phase",8002,,,-1,-1,,,,1
W10098703_CMK,f6mvyf1n9i,Nick_Dissertation_EX2_EP,1,8,2022-01-09T02:06:14+00:00,8.5578050613403,2,Mixed_Stim.csv,READVersionB.csv,"Read Mixed B","Read Mixed B",AFFECTION,LOVE,Study2,F,115,76,STUDY,8,8,,Study/JOL,"Study Phase",8000,,,-1,-1,,,,1
W10098703_CMK,f6mvyf1n9i,Nick_Dissertation_EX2_EP,1,9,2022-01-09T02:06:23+00:00,8.4499499797821,2,Mixed_Stim.csv,READVersionB.csv,"Read Mixed B","Read Mixed B",EXTENSION,LONG,Study2,F,96,75,STUDY,8,8,,Study/JOL,"Study Phase",8005,,,-1,-1,,,,1
W10098703_CMK,f6mvyf1n9i,Nick_Dissertation_EX2_EP,1,10,2022-01-09T02:06:31+00:00,8.455766916275,2,Mixed_Stim.csv,READVersionB.csv,"Read Mixed B","Read Mixed B",JUSTICE,MAROON,Study2,U,156,69,STUDY,8,8,,Study/JOL,"Study Phase",8005,,,-1,-1,,,,1
W10098703_CMK,f6mvyf1n9i,Nick_Dissertation_EX2_EP,1,11,2022-01-09T02:06:40+00:00,8.5482320785522,2,Mixed_Stim.csv,READVersionB.csv,"Read Mixed B","Read Mixed B",SHEARS,SCISSORS,Study2,F,112,82,STUDY,8,8,,Study/JOL,"Study Phase",8003,,,-1,-1,,,,1
W10098703_CMK,f6mvyf1n9i,Nick_Dissertation_EX2_EP,1,12,2022-01-09T02:06:48+00:00,8.4503700733185,2,Mixed_Stim.csv,READVersionB.csv,"Read Mixed B","Read Mixed B",LOAN,SIGN,Study2,U,171,60,STUDY,8,8,,Study/JOL,"Study Phase",8002,,,-1,-1,,,,1
W10098703_CMK,f6mvyf1n9i,Nick_Dissertation_EX2_EP,1,13,2022-01-09T02:06:57+00:00,8.4656620025635,2,Mixed_Stim.csv,READVersionB.csv,"Read Mixed B","Read Mixed B",MEAT,OBTAIN,Study2,U,161,63,STUDY,8,8,,Study/JOL,"Study Phase",8001,,,-1,-1,,,,1
W10098703_CMK,f6mvyf1n9i,Nick_Dissertation_EX2_EP,1,14,2022-01-09T02:07:06+00:00,8.7129030227661,2,Mixed_Stim.csv,READVersionB.csv,"Read Mixed B","Read Mixed B",LITTER,TRASH,Study2,F,103,87,STUDY,8,8,,Study/JOL,"Study Phase",8002,,,-1,-1,,,,1
W10098703_CMK,f6mvyf1n9i,Nick_Dissertation_EX2_EP,1,15,2022-01-09T02:07:14+00:00,8.4358599185944,2,Mixed_Stim.csv,READVersionB.csv,"Read Mixed B","Read Mixed B",FEUD,FIGHT,Study2,F,113,62,STUDY,8,8,,Study/JOL,"Study Phase",8001,,,-1,-1,,,,1
W10098703_CMK,f6mvyf1n9i,Nick_Dissertation_EX2_EP,1,16,2022-01-09T02:07:22+00:00,8.4598479270935,2,Mixed_Stim.csv,READVersionB.csv,"Read Mixed B","Read Mixed B",GIVE,STEAK,Study2,U,158,79,STUDY,8,8,,Study/JOL,"Study Phase",8002,,,-1,-1,,,,1
W10098703_CMK,f6mvyf1n9i,Nick_Dissertation_EX2_EP,1,17,2022-01-09T02:07:31+00:00,8.7115070819855,2,Mixed_Stim.csv,READVersionB.csv,"Read Mixed B","Read Mixed B",CHILL,COLD,Study2,F,114,72,STUDY,8,8,,Study/JOL,"Study Phase",8001,,,-1,-1,,,,1
W10098703_CMK,f6mvyf1n9i,Nick_Dissertation_EX2_EP,1,18,2022-01-09T02:07:40+00:00,8.7590389251709,2,Mixed_Stim.csv,READVersionB.csv,"Read Mixed B","Read Mixed B",CHOP,CUT,Study2,F,107,61,STUDY,8,8,,Study/JOL,"Study Phase",8002,,,-1,-1,,,,1
W10098703_CMK,f6mvyf1n9i,Nick_Dissertation_EX2_EP,1,19,2022-01-09T02:07:48+00:00,8.4425389766693,2,Mixed_Stim.csv,READVersionB.csv,"Read Mixed B","Read Mixed B",STRETCH,CLOTH,Study2,U,157,90,STUDY,8,8,,Study/JOL,"Study Phase",8001,,,-1,-1,,,,1
W10098703_CMK,f6mvyf1n9i,Nick_Dissertation_EX2_EP,1,20,2022-01-09T02:07:58+00:00,9.7679190635681,2,Mixed_Stim.csv,READVersionB.csv,"Read Mixed B","Read Mixed B",BOTH,OUNCE,Study2,U,172,67,STUDY,8,8,,Study/JOL,"Study Phase",8002,,,-1,-1,,,,1
W10098703_CMK,f6mvyf1n9i,Nick_Dissertation_EX2_EP,1,21,2022-01-09T02:08:07+00:00,8.5176289081573,2,Mixed_Stim.csv,READVersionB.csv,"Read Mixed B","Read Mixed B",CACTUS,PLANT,Study2,F,98,66,STUDY,8,8,,Study/JOL,"Study Phase",8003,,,-1,-1,,,,1
W10098703_CMK,f6mvyf1n9i,Nick_Dissertation_EX2_EP,1,22,2022-01-09T02:08:15+00:00,8.3901991844177,2,Mixed_Stim.csv,READVersionB.csv,"Read Mixed B","Read Mixed B",DETECTIVE,MYSTERY,Study2,F,100,95,STUDY,8,8,,Study/JOL,"Study Phase",8001,,,-1,-1,,,,1
W10098703_CMK,f6mvyf1n9i,Nick_Dissertation_EX2_EP,1,23,2022-01-09T02:08:23+00:00,8.4353528022766,2,Mixed_Stim.csv,READVersionB.csv,"Read Mixed B","Read Mixed B",INCENSE,SMELL,Study2,F,110,73,STUDY,8,8,,Study/JOL,"Study Phase",8002,,,-1,-1,,,,1
W10098703_CMK,f6mvyf1n9i,Nick_Dissertation_EX2_EP,1,24,2022-01-09T02:08:32+00:00,9.0392560958862,2,Mixed_Stim.csv,READVersionB.csv,"Read Mixed B","Read Mixed B",CRACKLE,ABLE,Study2,U,162,70,STUDY,8,8,,Study/JOL,"Study Phase",8004,,,-1,-1,,,,1
W10098703_CMK,f6mvyf1n9i,Nick_Dissertation_EX2_EP,1,25,2022-01-09T02:08:41+00:00,8.505558013916,2,Mixed_Stim.csv,READVersionB.csv,"Read Mixed B","Read Mixed B",FURRY,DOG,Study2,F,102,86,STUDY,8,8,,Study/JOL,"Study Phase",8002,,,-1,-1,,,,1
W10098703_CMK,f6mvyf1n9i,Nick_Dissertation_EX2_EP,1,26,2022-01-09T02:08:50+00:00,8.6517860889435,2,Mixed_Stim.csv,READVersionB.csv,"Read Mixed B","Read Mixed B",ADJOURN,END,Study2,F,101,59,STUDY,8,8,,Study/JOL,"Study Phase",8002,,,-1,-1,,,,1
W10098703_CMK,f6mvyf1n9i,Nick_Dissertation_EX2_EP,1,27,2022-01-09T02:08:58+00:00,8.4837129116058,2,Mixed_Stim.csv,READVersionB.csv,"Read Mixed B","Read Mixed B",NAME,HATE,Study2,U,167,94,STUDY,8,8,,Study/JOL,"Study Phase",8004,,,-1,-1,,,,1
W10098703_CMK,f6mvyf1n9i,Nick_Dissertation_EX2_EP,1,28,2022-01-09T02:09:07+00:00,8.4344599246979,2,Mixed_Stim.csv,READVersionB.csv,"Read Mixed B","Read Mixed B",VEHICLE,CHARM,Study2,U,160,77,STUDY,8,8,,Study/JOL,"Study Phase",8001,,,-1,-1,,,,1
W10098703_CMK,f6mvyf1n9i,Nick_Dissertation_EX2_EP,1,29,2022-01-09T02:09:16+00:00,9.5268731117249,2,Mixed_Stim.csv,READVersionB.csv,"Read Mixed B","Read Mixed B",Shell,SHAKE,Study2,U,163,65,STUDY,8,8,,Study/JOL,"Study Phase",8000,,,-1,-1,,,,1
W10098703_CMK,f6mvyf1n9i,Nick_Dissertation_EX2_EP,1,30,2022-01-09T02:09:25+00:00,8.4427080154419,2,Mixed_Stim.csv,READVersionB.csv,"Read Mixed B","Read Mixed B",SCALP,HEAD,Study2,F,105,92,STUDY,8,8,,Study/JOL,"Study Phase",8003,,,-1,-1,,,,1
W10098703_CMK,f6mvyf1n9i,Nick_Dissertation_EX2_EP,1,31,2022-01-09T02:09:33+00:00,8.4566130638123,2,Mixed_Stim.csv,READVersionB.csv,"Read Mixed B","Read Mixed B",DRIVER,CAR,Study2,F,106,81,STUDY,8,8,,Study/JOL,"Study Phase",8001,,,-1,-1,,,,1
W10098703_CMK,f6mvyf1n9i,Nick_Dissertation_EX2_EP,1,32,2022-01-09T02:09:41+00:00,8.467896938324,2,Mixed_Stim.csv,READVersionB.csv,"Read Mixed B","Read Mixed B",MULE,DONKEY,Study2,F,108,78,STUDY,8,8,,Study/JOL,"Study Phase",8001,,,-1,-1,,,,1
W10098703_CMK,f6mvyf1n9i,Nick_Dissertation_EX2_EP,1,33,2022-01-09T02:09:50+00:00,8.8284578323364,2,Mixed_Stim.csv,READVersionB.csv,"Read Mixed B","Read Mixed B",MIRROR,CHILDREN,Study2,U,174,64,STUDY,8,8,,Study/JOL,"Study Phase",8001,,,-1,-1,,,,1
W10098703_CMK,f6mvyf1n9i,Nick_Dissertation_EX2_EP,1,34,2022-01-09T02:09:59+00:00,8.3988311290741,2,Mixed_Stim.csv,READVersionB.csv,"Read Mixed B","Read Mixed B",SHOELACE,TIE,Study2,F,99,85,STUDY,8,8,,Study/JOL,"Study Phase",8005,,,-1,-1,,,,1
W10098703_CMK,f6mvyf1n9i,Nick_Dissertation_EX2_EP,1,35,2022-01-09T02:10:07+00:00,8.6950380802155,2,Mixed_Stim.csv,READVersionB.csv,"Read Mixed B","Read Mixed B",ADJOURN,END,Study2,F,101,59,STUDY,8,8,,Study/JOL,"Study Phase",8001,,,-1,-1,,,,1
W10098703_CMK,f6mvyf1n9i,Nick_Dissertation_EX2_EP,1,36,2022-01-09T02:10:16+00:00,8.4416098594666,2,Mixed_Stim.csv,READVersionB.csv,"Read Mixed B","Read Mixed B",CLUE,GAME,Study2,F,97,91,STUDY,8,8,,Study/JOL,"Study Phase",8004,,,-1,-1,,,,1
W10098703_CMK,f6mvyf1n9i,Nick_Dissertation_EX2_EP,1,37,2022-01-09T02:10:24+00:00,8.5506210327148,2,Mixed_Stim.csv,READVersionB.csv,"Read Mixed B","Read Mixed B",KEYS,JOKE,Study2,U,165,89,STUDY,8,8,,Study/JOL,"Study Phase",8001,,,-1,-1,,,,1
W10098703_CMK,f6mvyf1n9i,Nick_Dissertation_EX2_EP,1,38,2022-01-09T02:10:33+00:00,8.4816870689392,2,Mixed_Stim.csv,READVersionB.csv,"Read Mixed B","Read Mixed B",MOAT,CLEAR,Study2,U,169,88,STUDY,8,8,,Study/JOL,"Study Phase",8004,,,-1,-1,,,,1
W10098703_CMK,f6mvyf1n9i,Nick_Dissertation_EX2_EP,1,39,2022-01-09T02:10:41+00:00,8.5711200237274,2,Mixed_Stim.csv,READVersionB.csv,"Read Mixed B","Read Mixed B",ART,LION,Study1,U,79,23,STUDY,8,8,,Study/JOL,"Study Phase",8002,,,-1,-1,,,,1
W10098703_CMK,f6mvyf1n9i,Nick_Dissertation_EX2_EP,1,40,2022-01-09T02:10:50+00:00,8.4684708118439,2,Mixed_Stim.csv,READVersionB.csv,"Read Mixed B","Read Mixed B",DINE,EAT,Study2,F,111,80,STUDY,8,8,,Study/JOL,"Study Phase",8002,,,-1,-1,,,,1
W10098703_CMK,f6mvyf1n9i,Nick_Dissertation_EX2_EP,1,41,2022-01-09T02:10:59+00:00,8.6364002227783,2,Mixed_Stim.csv,READVersionB.csv,"Read Mixed B","Read Mixed B",MAIN,SCAR,Study2,U,175,68,STUDY,8,8,,Study/JOL,"Study Phase",8002,,,-1,-1,,,,1
W10098703_CMK,f6mvyf1n9i,Nick_Dissertation_EX2_EP,1,42,2022-01-09T02:11:07+00:00,8.771509885788,2,Mixed_Stim.csv,READVersionB.csv,"Read Mixed B","Read Mixed B",LEASE,TOIL,Study2,U,170,93,STUDY,8,8,,Study/JOL,"Study Phase",8001,,,-1,-1,,,,1
W10098703_CMK,f6mvyf1n9i,Nick_Dissertation_EX2_EP,1,43,2022-01-09T02:11:16+00:00,8.4000298976898,2,Mixed_Stim.csv,READVersionB.csv,"Read Mixed B","Read Mixed B",DOCUMENT,PAPER,Study2,F,109,84,STUDY,8,8,,Study/JOL,"Study Phase",8001,,,-1,-1,,,,1
W10098703_CMK,f6mvyf1n9i,Nick_Dissertation_EX2_EP,1,44,2022-01-09T02:11:24+00:00,8.5793180465698,2,Mixed_Stim.csv,READVersionB.csv,"Read Mixed B","Read Mixed B",CAKE,CLOTHES,Study2,U,166,96,STUDY,8,8,,Study/JOL,"Study Phase",8004,,,-1,-1,,,,1
W10098703_CMK,f6mvyf1n9i,Nick_Dissertation_EX2_EP,1,45,2022-01-09T02:11:33+00:00,8.6145541667938,2,Mixed_Stim.csv,READVersionB.csv,"Read Mixed B","Read Mixed B",MAZE,ELECTION,Study2,U,159,74,STUDY,8,8,,Study/JOL,"Study Phase",8002,,,-1,-1,,,,1
W10098703_CMK,f6mvyf1n9i,Nick_Dissertation_EX2_EP,1,46,2022-01-09T02:11:42+00:00,8.6097028255463,2,Mixed_Stim.csv,READVersionB.csv,"Read Mixed B","Read Mixed B",FUZZY,BANG,Study2,U,168,71,STUDY,8,8,,Study/JOL,"Study Phase",8003,,,-1,-1,,,,1
W10098703_CMK,f6mvyf1n9i,Nick_Dissertation_EX2_EP,1,47,2022-01-09T02:11:50+00:00,8.3299870491028,2,Mixed_Stim.csv,READVersionB.csv,"Read Mixed B","Read Mixed B",TOOL,SHED,BUFFER4,Buffer,178,101,STUDY,8,8,,Study/JOL,BUFFER2,8002,,,-1,-1,,,,1
W10098703_CMK,f6mvyf1n9i,Nick_Dissertation_EX2_EP,1,48,2022-01-09T02:11:58+00:00,8.4629170894623,2,Mixed_Stim.csv,READVersionB.csv,"Read Mixed B","Read Mixed B",OCTOBER,SPOOKY,BUFFER4,Buffer,180,98,STUDY,8,8,,Study/JOL,BUFFER2,8001,,,-1,-1,,,,1
W10098703_CMK,f6mvyf1n9i,Nick_Dissertation_EX2_EP,1,49,2022-01-09T02:12:07+00:00,8.5660858154297,2,Mixed_Stim.csv,READVersionB.csv,"Read Mixed B","Read Mixed B",SPRING,MARCH,BUFFER4,Buffer,179,97,STUDY,8,8,,Study/JOL,BUFFER2,8002,,,-1,-1,,,,1
W10098703_CMK,f6mvyf1n9i,Nick_Dissertation_EX2_EP,1,50,2022-01-09T02:12:15+00:00,8.4808630943298,2,Mixed_Stim.csv,READVersionB.csv,"Read Mixed B","Read Mixed B",DAYS,WEAKS,BUFFER4,Buffer,176,100,STUDY,8,8,,Study/JOL,BUFFER2,8001,,,-1,-1,,,,1
W10098703_CMK,f6mvyf1n9i,Nick_Dissertation_EX2_EP,1,51,2022-01-09T02:12:24+00:00,8.6382730007172,2,Mixed_Stim.csv,READVersionB.csv,"Read Mixed B","Read Mixed B",MONTH,YEAR,BUFFER4,Buffer,177,99,STUDY,8,8,,Study/JOL,BUFFER2,8001,,,-1,-1,,,,1
W10098703_CMK,f6mvyf1n9i,Nick_Dissertation_EX2_EP,1,52,2022-01-09T02:12:27+00:00,3.3138909339905,2,Mixed_Stim.csv,READVersionB.csv,"Read Mixed B","Read Mixed B",,,,,,0,Instruct,User,-,"You have completed this section. Please press Enter.",Filler_Instruction,Instruct2,2939,,,-1,-1,,,,1
W10098703_CMK,f6mvyf1n9i,Nick_Dissertation_EX2_EP,1,53,2022-01-09T02:14:28+00:00,120.69812297821,2,Mixed_Stim.csv,READVersionB.csv,"Read Mixed B","Read Mixed B",,,,,,0,FreeRecall,120,120,"Please list the 50 US states in alphabetical order. The task will automatically advance to the next screen after two minutes.",,Filler1,120001,"alabama alaska arizona arkansas colorado connecticut delaware georgia hawaii idaho iowa kansas kentucky louisianna mississippi missouri nevada ",0,5458,116677,0,0,,1
W10098703_CMK,f6mvyf1n9i,Nick_Dissertation_EX2_EP,1,54,2022-01-09T02:14:40+00:00,11.832451105118,2,Mixed_Stim.csv,READVersionB.csv,"Read Mixed B","Read Mixed B",,,,,,0,Instruct,-,10,"You will now be presented with the first word from each of the previously studied item pairs. Please type the missing word. If you do not know the word, you may guess or press Enter to skip forward to the next pair.",,Instruct3,11444,,,-1,-1,,,,1
W10098703_CMK,f6mvyf1n9i,Nick_Dissertation_EX2_EP,1,55,2022-01-09T02:14:45+00:00,5.0745921134949,2,Mixed_Stim.csv,READVersionB.csv,"Read Mixed B","Read Mixed B",FUZZY,BANG,Study2,U,168,71,Test,User,-,,Recall,Recall1,3951,warm,25,2205,2667,0,0,,1
W10098703_CMK,f6mvyf1n9i,Nick_Dissertation_EX2_EP,1,56,2022-01-09T02:14:49+00:00,4.2206969261169,2,Mixed_Stim.csv,READVersionB.csv,"Read Mixed B","Read Mixed B",INCENSE,SMELL,Study2,F,110,73,Test,User,-,,Recall,Recall1,3375,smell,100,1423,1961,1,1,,1
W10098703_CMK,f6mvyf1n9i,Nick_Dissertation_EX2_EP,1,57,2022-01-09T02:14:55+00:00,5.8011710643768,2,Mixed_Stim.csv,READVersionB.csv,"Read Mixed B","Read Mixed B",KEYS,JOKE,Study2,U,165,89,Test,User,-,,Recall,Recall1,4960,joke,100,2010,3562,1,1,,1
W10098703_CMK,f6mvyf1n9i,Nick_Dissertation_EX2_EP,1,58,2022-01-09T02:15:02+00:00,6.9088048934937,2,Mixed_Stim.csv,READVersionB.csv,"Read Mixed B","Read Mixed B",MAZE,ELECTION,Study2,U,159,74,Test,User,-,,Recall,Recall1,4419,enter,30.769230769231,1613,2249,0,0,,1
W10098703_CMK,f6mvyf1n9i,Nick_Dissertation_EX2_EP,1,59,2022-01-09T02:15:18+00:00,16.587202072144,2,Mixed_Stim.csv,READVersionB.csv,"Read Mixed B","Read Mixed B",LOAN,SIGN,Study2,U,171,60,Test,User,-,,Recall,Recall1,16140,smell,22.222222222222,2143,12872,0,0,,1
W10098703_CMK,f6mvyf1n9i,Nick_Dissertation_EX2_EP,1,60,2022-01-09T02:15:24+00:00,5.913822889328,2,Mixed_Stim.csv,READVersionB.csv,"Read Mixed B","Read Mixed B",ADJOURN,END,Study2,F,101,59,Test,User,-,,Recall,Recall1,5448,end,100,3851,4080,1,1,,1
W10098703_CMK,f6mvyf1n9i,Nick_Dissertation_EX2_EP,1,61,2022-01-09T02:15:28+00:00,4.1112959384918,2,Mixed_Stim.csv,READVersionB.csv,"Read Mixed B","Read Mixed B",CACTUS,PLANT,Study2,F,98,66,Test,User,-,,Recall,Recall1,3633,plant,100,1655,2290,1,1,,1
W10098703_CMK,f6mvyf1n9i,Nick_Dissertation_EX2_EP,1,62,2022-01-09T02:15:32+00:00,3.9758751392365,2,Mixed_Stim.csv,READVersionB.csv,"Read Mixed B","Read Mixed B",STRETCH,CLOTH,Study2,U,157,90,Test,User,-,,Recall,Recall1,3397,,0,-1,-1,0,0,,1
W10098703_CMK,f6mvyf1n9i,Nick_Dissertation_EX2_EP,1,63,2022-01-09T02:15:43+00:00,10.392565965652,2,Mixed_Stim.csv,READVersionB.csv,"Read Mixed B","Read Mixed B",SHEARS,SCISSORS,Study2,F,112,82,Test,User,-,,Recall,Recall1,9741,scissors,100,1624,5974,1,1,,1
W10098703_CMK,f6mvyf1n9i,Nick_Dissertation_EX2_EP,1,64,2022-01-09T02:15:47+00:00,4.2948660850525,2,Mixed_Stim.csv,READVersionB.csv,"Read Mixed B","Read Mixed B",FURRY,DOG,Study2,F,102,86,Test,User,-,,Recall,Recall1,3809,cute,0,1901,2364,0,0,,1
W10098703_CMK,f6mvyf1n9i,Nick_Dissertation_EX2_EP,1,65,2022-01-09T02:15:53+00:00,5.7008819580078,2,Mixed_Stim.csv,READVersionB.csv,"Read Mixed B","Read Mixed B",NAME,HATE,Study2,U,167,94,Test,User,-,,Recall,Recall1,5213,hate,100,3024,3442,1,1,,1
W10098703_CMK,f6mvyf1n9i,Nick_Dissertation_EX2_EP,1,66,2022-01-09T02:15:58+00:00,5.3142349720001,2,Mixed_Stim.csv,READVersionB.csv,"Read Mixed B","Read Mixed B",CHOP,CUT,Study2,F,107,61,Test,User,-,,Recall,Recall1,4773,cut,100,1840,2104,1,1,,1
W10098703_CMK,f6mvyf1n9i,Nick_Dissertation_EX2_EP,1,67,2022-01-09T02:16:03+00:00,4.8772170543671,2,Mixed_Stim.csv,READVersionB.csv,"Read Mixed B","Read Mixed B",TEMPERATURE,Morning,Study2,U,173,57,Test,User,-,,Recall,Recall1,4252,warm,18.181818181818,1300,2192,0,0,,1
W10098703_CMK,f6mvyf1n9i,Nick_Dissertation_EX2_EP,1,68,2022-01-09T02:16:09+00:00,5.6905188560486,2,Mixed_Stim.csv,READVersionB.csv,"Read Mixed B","Read Mixed B",LEASE,TOIL,Study2,U,170,93,Test,User,-,,Recall,Recall1,4911,hate,25,2795,3305,0,0,,1
W10098703_CMK,f6mvyf1n9i,Nick_Dissertation_EX2_EP,1,69,2022-01-09T02:16:12+00:00,3.6329400539398,2,Mixed_Stim.csv,READVersionB.csv,"Read Mixed B","Read Mixed B",DINE,EAT,Study2,F,111,80,Test,User,-,,Recall,Recall1,3231,eat,100,1305,1683,1,1,,1
W10098703_CMK,f6mvyf1n9i,Nick_Dissertation_EX2_EP,1,70,2022-01-09T02:16:18+00:00,5.4830689430237,2,Mixed_Stim.csv,READVersionB.csv,"Read Mixed B","Read Mixed B",MOAT,CLEAR,Study2,U,169,88,Test,User,-,,Recall,Recall1,5016,,0,-1,-1,0,0,,1
W10098703_CMK,f6mvyf1n9i,Nick_Dissertation_EX2_EP,1,71,2022-01-09T02:16:24+00:00,6.5024271011353,2,Mixed_Stim.csv,READVersionB.csv,"Read Mixed B","Read Mixed B",MULE,DONKEY,Study2,F,108,78,Test,User,-,,Recall,Recall1,5733,donkey,100,1297,2069,1,1,,1
W10098703_CMK,f6mvyf1n9i,Nick_Dissertation_EX2_EP,1,72,2022-01-09T02:16:28+00:00,4.1430690288544,2,Mixed_Stim.csv,READVersionB.csv,"Read Mixed B","Read Mixed B",Shell,SHAKE,Study2,U,163,65,Test,User,-,,Recall,Recall1,3763,snail,40,1720,2278,0,0,,1
W10098703_CMK,f6mvyf1n9i,Nick_Dissertation_EX2_EP,1,73,2022-01-09T02:16:34+00:00,5.7136888504028,2,Mixed_Stim.csv,READVersionB.csv,"Read Mixed B","Read Mixed B",CRACKLE,ABLE,Study2,U,162,70,Test,User,-,,Recall,Recall1,5201,fire,25,2134,2505,0,0,,1
W10098703_CMK,f6mvyf1n9i,Nick_Dissertation_EX2_EP,1,74,2022-01-09T02:16:38+00:00,4.1146039962769,2,Mixed_Stim.csv,READVersionB.csv,"Read Mixed B","Read Mixed B",CHILL,COLD,Study2,F,114,72,Test,User,-,,Recall,Recall1,3655,cold,100,1661,2119,1,1,,1
W10098703_CMK,f6mvyf1n9i,Nick_Dissertation_EX2_EP,1,75,2022-01-09T02:16:42+00:00,4.0748851299286,2,Mixed_Stim.csv,READVersionB.csv,"Read Mixed B","Read Mixed B",DOCUMENT,PAPER,Study2,F,109,84,Test,User,-,,Recall,Recall1,3676,paper,100,1653,2158,1,1,,1
W10098703_CMK,f6mvyf1n9i,Nick_Dissertation_EX2_EP,1,76,2022-01-09T02:16:46+00:00,3.4968769550323,2,Mixed_Stim.csv,READVersionB.csv,"Read Mixed B","Read Mixed B",MAIN,SCAR,Study2,U,175,68,Test,User,-,,Recall,Recall1,2997,,0,-1,-1,0,0,,1
W10098703_CMK,f6mvyf1n9i,Nick_Dissertation_EX2_EP,1,77,2022-01-09T02:16:51+00:00,4.6967830657959,2,Mixed_Stim.csv,READVersionB.csv,"Read Mixed B","Read Mixed B",CLUE,GAME,Study2,F,97,91,Test,User,-,,Recall,Recall1,4264,game,100,2081,2803,1,1,,1
W10098703_CMK,f6mvyf1n9i,Nick_Dissertation_EX2_EP,1,78,2022-01-09T02:16:58+00:00,7.5731639862061,2,Mixed_Stim.csv,READVersionB.csv,"Read Mixed B","Read Mixed B",DETECTIVE,MYSTERY,Study2,F,100,95,Test,User,-,,Recall,Recall1,7040,pipe,18.181818181818,5076,5450,0,0,,1
W10098703_CMK,f6mvyf1n9i,Nick_Dissertation_EX2_EP,1,79,2022-01-09T02:17:02+00:00,4.0103559494019,2,Mixed_Stim.csv,READVersionB.csv,"Read Mixed B","Read Mixed B",JUSTICE,MAROON,Study2,U,156,69,Test,User,-,,Recall,Recall1,3530,,0,-1,-1,0,0,,1
W10098703_CMK,f6mvyf1n9i,Nick_Dissertation_EX2_EP,1,80,2022-01-09T02:17:11+00:00,8.6853110790253,2,Mixed_Stim.csv,READVersionB.csv,"Read Mixed B","Read Mixed B",AFFECTION,LOVE,Study2,F,115,76,Test,User,-,,Recall,Recall1,8131,,0,-1,-1,0,0,,1
W10098703_CMK,f6mvyf1n9i,Nick_Dissertation_EX2_EP,1,81,2022-01-09T02:17:19+00:00,8.1247098445892,2,Mixed_Stim.csv,READVersionB.csv,"Read Mixed B","Read Mixed B",BOTH,OUNCE,Study2,U,172,67,Test,User,-,,Recall,Recall1,7488,,0,-1,-1,0,0,,1
W10098703_CMK,f6mvyf1n9i,Nick_Dissertation_EX2_EP,1,82,2022-01-09T02:17:23+00:00,3.8361420631409,2,Mixed_Stim.csv,READVersionB.csv,"Read Mixed B","Read Mixed B",EXTENSION,LONG,Study2,F,96,75,Test,User,-,,Recall,Recall1,3256,cut,0,1587,1869,0,0,,1
W10098703_CMK,f6mvyf1n9i,Nick_Dissertation_EX2_EP,1,83,2022-01-09T02:17:50+00:00,27.100223064423,2,Mixed_Stim.csv,READVersionB.csv,"Read Mixed B","Read Mixed B",MEAT,OBTAIN,Study2,U,161,63,Test,User,-,,Recall,Recall1,26709,obtain,100,4898,23796,1,1,,1
W10098703_CMK,f6mvyf1n9i,Nick_Dissertation_EX2_EP,1,84,2022-01-09T02:17:54+00:00,4.0827329158783,2,Mixed_Stim.csv,READVersionB.csv,"Read Mixed B","Read Mixed B",MIRROR,CHILDREN,Study2,U,174,64,Test,User,-,,Recall,Recall1,3600,,0,-1,-1,0,0,,1
W10098703_CMK,f6mvyf1n9i,Nick_Dissertation_EX2_EP,1,85,2022-01-09T02:18:00+00:00,5.8097770214081,2,Mixed_Stim.csv,READVersionB.csv,"Read Mixed B","Read Mixed B",ART,LION,Study1,U,79,23,Test,User,-,,Recall,Recall1,5151,lion,100,2269,2764,1,1,,1
W10098703_CMK,f6mvyf1n9i,Nick_Dissertation_EX2_EP,1,86,2022-01-09T02:18:04+00:00,3.9705131053925,2,Mixed_Stim.csv,READVersionB.csv,"Read Mixed B","Read Mixed B",SCALP,HEAD,Study2,F,105,92,Test,User,-,,Recall,Recall1,3291,head,100,1095,1477,1,1,,1
W10098703_CMK,f6mvyf1n9i,Nick_Dissertation_EX2_EP,1,87,2022-01-09T02:18:08+00:00,4.6954598426819,2,Mixed_Stim.csv,READVersionB.csv,"Read Mixed B","Read Mixed B",CAKE,CLOTHES,Study2,U,166,96,Test,User,-,,Recall,Recall1,4032,,0,-1,-1,0,0,,1
W10098703_CMK,f6mvyf1n9i,Nick_Dissertation_EX2_EP,1,88,2022-01-09T02:18:18+00:00,9.4784331321716,2,Mixed_Stim.csv,READVersionB.csv,"Read Mixed B","Read Mixed B",GIVE,STEAK,Study2,U,158,79,Test,User,-,,Recall,Recall1,8882,steak,100,2976,6963,1,1,,1
W10098703_CMK,f6mvyf1n9i,Nick_Dissertation_EX2_EP,1,89,2022-01-09T02:18:23+00:00,5.0667200088501,2,Mixed_Stim.csv,READVersionB.csv,"Read Mixed B","Read Mixed B",DRIVER,CAR,Study2,F,106,81,Test,User,-,,Recall,Recall1,4649,,0,-1,-1,0,0,,1
W10098703_CMK,f6mvyf1n9i,Nick_Dissertation_EX2_EP,1,90,2022-01-09T02:18:29+00:00,5.9041550159454,2,Mixed_Stim.csv,READVersionB.csv,"Read Mixed B","Read Mixed B",FEUD,FIGHT,Study2,F,113,62,Test,User,-,,Recall,Recall1,5337,family,36.363636363636,1942,3914,0,0,,1
W10098703_CMK,f6mvyf1n9i,Nick_Dissertation_EX2_EP,1,91,2022-01-09T02:18:35+00:00,6.5843749046326,2,Mixed_Stim.csv,READVersionB.csv,"Read Mixed B","Read Mixed B",LITTER,TRASH,Study2,F,103,87,Test,User,-,,Recall,Recall1,6136,trash,100,4232,4983,1,1,,1
W10098703_CMK,f6mvyf1n9i,Nick_Dissertation_EX2_EP,1,92,2022-01-09T02:18:39+00:00,3.8761560916901,2,Mixed_Stim.csv,READVersionB.csv,"Read Mixed B","Read Mixed B",ADJOURN,END,Study2,F,101,59,Test,User,-,,Recall,Recall1,3484,end,100,1430,1730,1,1,,1
W10098703_CMK,f6mvyf1n9i,Nick_Dissertation_EX2_EP,1,93,2022-01-09T02:18:43+00:00,3.7267348766327,2,Mixed_Stim.csv,READVersionB.csv,"Read Mixed B","Read Mixed B",VEHICLE,CHARM,Study2,U,160,77,Test,User,-,,Recall,Recall1,3237,car,75,1625,1966,0,1,,1
W10098703_CMK,f6mvyf1n9i,Nick_Dissertation_EX2_EP,1,94,2022-01-09T02:18:49+00:00,5.4497139453888,2,Mixed_Stim.csv,READVersionB.csv,"Read Mixed B","Read Mixed B",SHOELACE,TIE,Study2,F,99,85,Test,User,-,,Recall,Recall1,3994,tie,100,2266,2493,1,1,,1
W10098703_CMK,f6mvyf1n9i,Nick_Dissertation_EX2_EP,1,95,2022-01-09T02:19:07+00:00,18.64203619957,2,Mixed_Stim.csv,READVersionB.csv,"Read Mixed B","Read Mixed B",,,,,,0,Instruct,-,10,"You will now be presented with a new set of word pairs. Please study each pair. Remember that your memory will be tested! Each pair will be displayed on the computer screen and will automatically advance to the next pair. Press ENTER when you are ready to begin.",Initial_Instruct,Instruct4,18123,,,-1,-1,,,,0.847
W10098703_CMK,f6mvyf1n9i,Nick_Dissertation_EX2_EP,1,96,2022-01-09T02:19:16+00:00,8.6024568080902,2,Mixed_Stim.csv,READVersionB.csv,"Read Mixed B","Read Mixed B",TREES,GREEN,BUFFER1,Buffer,1,2,STUDY,8,8,,Study/JOL,BUFFER3,8003,,,-1,-1,,,,1
W10098703_CMK,f6mvyf1n9i,Nick_Dissertation_EX2_EP,1,97,2022-01-09T02:19:24+00:00,8.5193541049957,2,Mixed_Stim.csv,READVersionB.csv,"Read Mixed B","Read Mixed B",BASEBALL,CATCHER,BUFFER1,Buffer,2,5,STUDY,8,8,,Study/JOL,BUFFER3,8002,,,-1,-1,,,,1
W10098703_CMK,f6mvyf1n9i,Nick_Dissertation_EX2_EP,1,98,2022-01-09T02:19:33+00:00,8.5421710014343,2,Mixed_Stim.csv,READVersionB.csv,"Read Mixed B","Read Mixed B",SCARE,HIDE,BUFFER1,Buffer,4,6,STUDY,8,8,,Study/JOL,BUFFER3,8003,,,-1,-1,,,,1
W10098703_CMK,f6mvyf1n9i,Nick_Dissertation_EX2_EP,1,99,2022-01-09T02:19:41+00:00,8.4059100151062,2,Mixed_Stim.csv,READVersionB.csv,"Read Mixed B","Read Mixed B",SPACE,JAM,BUFFER1,Buffer,5,3,STUDY,8,8,,Study/JOL,BUFFER3,8002,,,-1,-1,,,,1
W10098703_CMK,f6mvyf1n9i,Nick_Dissertation_EX2_EP,1,100,2022-01-09T02:19:50+00:00,8.5874428749084,2,Mixed_Stim.csv,READVersionB.csv,"Read Mixed B","Read Mixed B",PEANUT,BUTTER,BUFFER1,Buffer,3,4,STUDY,8,8,,Study/JOL,BUFFER3,8001,,,-1,-1,,,,1
W10098703_CMK,f6mvyf1n9i,Nick_Dissertation_EX2_EP,1,101,2022-01-09T02:20:00+00:00,9.7952661514282,2,Mixed_Stim.csv,READVersionB.csv,"Read Mixed B","Read Mixed B",EDITOR,NEWS,Study1,F,10,22,STUDY,8,8,,Study/JOL,"Study Phase2",8001,,,-1,-1,,,,1
W10098703_CMK,f6mvyf1n9i,Nick_Dissertation_EX2_EP,1,102,2022-01-09T02:20:10+00:00,10.175693035126,2,Mixed_Stim.csv,READVersionB.csv,"Read Mixed B","Read Mixed B",DISCUSSION,TALK,Study1,F,21,7,STUDY,8,8,,Study/JOL,"Study Phase2",8002,,,-1,-1,,,,1
W10098703_CMK,f6mvyf1n9i,Nick_Dissertation_EX2_EP,1,103,2022-01-09T02:20:20+00:00,9.9353067874908,2,Mixed_Stim.csv,READVersionB.csv,"Read Mixed B","Read Mixed B",MACHINE,POSITION,Study1,U,76,42,STUDY,8,8,,Study/JOL,"Study Phase2",8005,,,-1,-1,,,,1
W10098703_CMK,f6mvyf1n9i,Nick_Dissertation_EX2_EP,1,104,2022-01-09T02:20:28+00:00,8.3770890235901,2,Mixed_Stim.csv,READVersionB.csv,"Read Mixed B","Read Mixed B",VALLEY,ADD,Study1,U,82,34,STUDY,8,8,,Study/JOL,"Study Phase2",8005,,,-1,-1,,,,1
W10098703_CMK,f6mvyf1n9i,Nick_Dissertation_EX2_EP,1,105,2022-01-09T02:20:38+00:00,9.6739120483398,2,Mixed_Stim.csv,READVersionB.csv,"Read Mixed B","Read Mixed B",ARTERY,BRONZE,Study1,U,74,41,STUDY,8,8,,Study/JOL,"Study Phase2",8002,,,-1,-1,,,,1
W10098703_CMK,f6mvyf1n9i,Nick_Dissertation_EX2_EP,1,106,2022-01-09T02:20:46+00:00,8.5316121578217,2,Mixed_Stim.csv,READVersionB.csv,"Read Mixed B","Read Mixed B",HYGIENE,CLEAN,Study1,F,17,36,STUDY,8,8,,Study/JOL,"Study Phase2",8004,,,-1,-1,,,,1
W10098703_CMK,f6mvyf1n9i,Nick_Dissertation_EX2_EP,1,107,2022-01-09T02:20:55+00:00,8.4456768035889,2,Mixed_Stim.csv,READVersionB.csv,"Read Mixed B","Read Mixed B",DIGESTION,STOMACH,Study1,F,7,8,STUDY,8,8,,Study/JOL,"Study Phase2",8002,,,-1,-1,,,,1
W10098703_CMK,f6mvyf1n9i,Nick_Dissertation_EX2_EP,1,108,2022-01-09T02:21:03+00:00,8.3837189674377,2,Mixed_Stim.csv,READVersionB.csv,"Read Mixed B","Read Mixed B",DELINQUENT,BAD,Study1,F,6,43,STUDY,8,8,,Study/JOL,"Study Phase2",8001,,,-1,-1,,,,1
W10098703_CMK,f6mvyf1n9i,Nick_Dissertation_EX2_EP,1,109,2022-01-09T02:21:12+00:00,8.5372211933136,2,Mixed_Stim.csv,READVersionB.csv,"Read Mixed B","Read Mixed B",HORNET,STING,Study1,F,11,21,STUDY,8,8,,Study/JOL,"Study Phase2",8001,,,-1,-1,,,,1
W10098703_CMK,f6mvyf1n9i,Nick_Dissertation_EX2_EP,1,110,2022-01-09T02:21:20+00:00,8.6847109794617,2,Mixed_Stim.csv,READVersionB.csv,"Read Mixed B","Read Mixed B",KING,VASE,Study1,U,85,11,STUDY,8,8,,Study/JOL,"Study Phase2",8004,,,-1,-1,,,,1
W10098703_CMK,f6mvyf1n9i,Nick_Dissertation_EX2_EP,1,111,2022-01-09T02:21:29+00:00,8.534087896347,2,Mixed_Stim.csv,READVersionB.csv,"Read Mixed B","Read Mixed B",HERD,COW,Study1,F,22,46,STUDY,8,8,,Study/JOL,"Study Phase2",8003,,,-1,-1,,,,1
W10098703_CMK,f6mvyf1n9i,Nick_Dissertation_EX2_EP,1,112,2022-01-09T02:21:37+00:00,8.4788720607758,2,Mixed_Stim.csv,READVersionB.csv,"Read Mixed B","Read Mixed B",BRIDGE,WATER,Study1,F,18,15,STUDY,8,8,,Study/JOL,"Study Phase2",8002,,,-1,-1,,,,1
W10098703_CMK,f6mvyf1n9i,Nick_Dissertation_EX2_EP,1,113,2022-01-09T02:21:46+00:00,8.4329509735107,2,Mixed_Stim.csv,READVersionB.csv,"Read Mixed B","Read Mixed B",SWAN,BIRD,Study1,F,14,32,STUDY,8,8,,Study/JOL,"Study Phase2",8003,,,-1,-1,,,,1
W10098703_CMK,f6mvyf1n9i,Nick_Dissertation_EX2_EP,1,114,2022-01-09T02:21:54+00:00,8.3642621040344,2,Mixed_Stim.csv,READVersionB.csv,"Read Mixed B","Read Mixed B",ORCHID,FLOWER,Study1,F,24,25,STUDY,8,8,,Study/JOL,"Study Phase2",8004,,,-1,-1,,,,1
W10098703_CMK,f6mvyf1n9i,Nick_Dissertation_EX2_EP,1,115,2022-01-09T02:22:03+00:00,8.4564487934113,2,Mixed_Stim.csv,READVersionB.csv,"Read Mixed B","Read Mixed B",TUNA,FISH,Study1,F,25,45,STUDY,8,8,,Study/JOL,"Study Phase2",8002,,,-1,-1,,,,1
W10098703_CMK,f6mvyf1n9i,Nick_Dissertation_EX2_EP,1,116,2022-01-09T02:22:11+00:00,8.5278940200806,2,Mixed_Stim.csv,READVersionB.csv,"Read Mixed B","Read Mixed B",BITTER,COLD,Study1,F,12,44,STUDY,8,8,,Study/JOL,"Study Phase2",8002,,,-1,-1,,,,1
W10098703_CMK,f6mvyf1n9i,Nick_Dissertation_EX2_EP,1,117,2022-01-09T02:22:20+00:00,8.4205141067505,2,Mixed_Stim.csv,READVersionB.csv,"Read Mixed B","Read Mixed B",PARK,HUNGRY,Study1,U,68,20,STUDY,8,8,,Study/JOL,"Study Phase2",8001,,,-1,-1,,,,1
W10098703_CMK,f6mvyf1n9i,Nick_Dissertation_EX2_EP,1,118,2022-01-09T02:22:28+00:00,8.848149061203,2,Mixed_Stim.csv,READVersionB.csv,"Read Mixed B","Read Mixed B",STRONG,ACCIDENT,Study1,U,80,19,STUDY,8,8,,Study/JOL,"Study Phase2",8001,,,-1,-1,,,,1
W10098703_CMK,f6mvyf1n9i,Nick_Dissertation_EX2_EP,1,119,2022-01-09T02:22:37+00:00,8.5626289844513,2,Mixed_Stim.csv,READVersionB.csv,"Read Mixed B","Read Mixed B",HAPPY,CAR,Study1,U,77,33,STUDY,8,8,,Study/JOL,"Study Phase2",8002,,,-1,-1,,,,1
W10098703_CMK,f6mvyf1n9i,Nick_Dissertation_EX2_EP,1,120,2022-01-09T02:22:45+00:00,8.4882929325104,2,Mixed_Stim.csv,READVersionB.csv,"Read Mixed B","Read Mixed B",WAY,OUT,Study1,F,16,14,STUDY,8,8,,Study/JOL,"Study Phase2",8004,,,-1,-1,,,,1
W10098703_CMK,f6mvyf1n9i,Nick_Dissertation_EX2_EP,1,121,2022-01-09T02:22:54+00:00,8.3418099880219,2,Mixed_Stim.csv,READVersionB.csv,"Read Mixed B","Read Mixed B",HIDE,SICK,Study1,U,84,24,STUDY,8,8,,Study/JOL,"Study Phase2",8001,,,-1,-1,,,,1
W10098703_CMK,f6mvyf1n9i,Nick_Dissertation_EX2_EP,1,122,2022-01-09T02:23:02+00:00,8.515762090683,2,Mixed_Stim.csv,READVersionB.csv,"Read Mixed B","Read Mixed B",WAGE,MONEY,Study1,F,8,17,STUDY,8,8,,Study/JOL,"Study Phase2",8003,,,-1,-1,,,,1
W10098703_CMK,f6mvyf1n9i,Nick_Dissertation_EX2_EP,1,123,2022-01-09T02:23:11+00:00,8.3733968734741,2,Mixed_Stim.csv,READVersionB.csv,"Read Mixed B","Read Mixed B",SOON,BELT,Study1,U,70,28,STUDY,8,8,,Study/JOL,"Study Phase2",8005,,,-1,-1,,,,1
W10098703_CMK,f6mvyf1n9i,Nick_Dissertation_EX2_EP,1,124,2022-01-09T02:23:19+00:00,8.4614729881287,2,Mixed_Stim.csv,READVersionB.csv,"Read Mixed B","Read Mixed B",ROOT,PLANT,Study1,F,13,16,STUDY,8,8,,Study/JOL,"Study Phase2",8002,,,-1,-1,,,,1
W10098703_CMK,f6mvyf1n9i,Nick_Dissertation_EX2_EP,1,125,2022-01-09T02:23:28+00:00,8.4395520687103,2,Mixed_Stim.csv,READVersionB.csv,"Read Mixed B","Read Mixed B",PAW,DOG,Study1,F,15,13,STUDY,8,8,,Study/JOL,"Study Phase2",8001,,,-1,-1,,,,1
W10098703_CMK,f6mvyf1n9i,Nick_Dissertation_EX2_EP,1,126,2022-01-09T02:23:36+00:00,8.3521559238434,2,Mixed_Stim.csv,READVersionB.csv,"Read Mixed B","Read Mixed B",GEOLOGY,ROCK,Study1,F,19,30,STUDY,8,8,,Study/JOL,"Study Phase2",8001,,,-1,-1,,,,1
W10098703_CMK,f6mvyf1n9i,Nick_Dissertation_EX2_EP,1,127,2022-01-09T02:23:44+00:00,8.4189581871033,2,Mixed_Stim.csv,READVersionB.csv,"Read Mixed B","Read Mixed B",DEATH,BUSINESS,Study1,U,72,10,STUDY,8,8,,Study/JOL,"Study Phase2",8003,,,-1,-1,,,,1
W10098703_CMK,f6mvyf1n9i,Nick_Dissertation_EX2_EP,1,128,2022-01-09T02:23:53+00:00,8.7654159069061,2,Mixed_Stim.csv,READVersionB.csv,"Read Mixed B","Read Mixed B",CASH,WOULD,Study1,U,83,29,STUDY,8,8,,Study/JOL,"Study Phase2",8002,,,-1,-1,,,,1
W10098703_CMK,f6mvyf1n9i,Nick_Dissertation_EX2_EP,1,129,2022-01-09T02:24:02+00:00,8.5506119728088,2,Mixed_Stim.csv,READVersionB.csv,"Read Mixed B","Read Mixed B",SUGAR,RIDDLE,Study1,U,81,27,STUDY,8,8,,Study/JOL,"Study Phase2",8003,,,-1,-1,,,,1
W10098703_CMK,f6mvyf1n9i,Nick_Dissertation_EX2_EP,1,130,2022-01-09T02:24:10+00:00,8.7992749214172,2,Mixed_Stim.csv,READVersionB.csv,"Read Mixed B","Read Mixed B",CREDIT,CARD,Study1,F,23,31,STUDY,8,8,,Study/JOL,"Study Phase2",8002,,,-1,-1,,,,1
W10098703_CMK,f6mvyf1n9i,Nick_Dissertation_EX2_EP,1,131,2022-01-09T02:24:19+00:00,8.3637549877167,2,Mixed_Stim.csv,READVersionB.csv,"Read Mixed B","Read Mixed B",ART,LION,Study1,U,79,23,STUDY,8,8,,Study/JOL,"Study Phase2",8006,,,-1,-1,,,,1
W10098703_CMK,f6mvyf1n9i,Nick_Dissertation_EX2_EP,1,132,2022-01-09T02:24:27+00:00,8.4441571235657,2,Mixed_Stim.csv,READVersionB.csv,"Read Mixed B","Read Mixed B",DEBATE,SIGHT,Study1,U,73,18,STUDY,8,8,,Study/JOL,"Study Phase2",8001,,,-1,-1,,,,1
W10098703_CMK,f6mvyf1n9i,Nick_Dissertation_EX2_EP,1,133,2022-01-09T02:24:36+00:00,8.4222309589386,2,Mixed_Stim.csv,READVersionB.csv,"Read Mixed B","Read Mixed B",ALLOW,TUCK,Study1,U,78,40,STUDY,8,8,,Study/JOL,"Study Phase2",8004,,,-1,-1,,,,1
W10098703_CMK,f6mvyf1n9i,Nick_Dissertation_EX2_EP,1,134,2022-01-09T02:24:44+00:00,8.5283749103546,2,Mixed_Stim.csv,READVersionB.csv,"Read Mixed B","Read Mixed B",PUSHER,CLUTTER,Study1,U,66,12,STUDY,8,8,,Study/JOL,"Study Phase2",8002,,,-1,-1,,,,1
W10098703_CMK,f6mvyf1n9i,Nick_Dissertation_EX2_EP,1,135,2022-01-09T02:24:53+00:00,8.5817980766296,2,Mixed_Stim.csv,READVersionB.csv,"Read Mixed B","Read Mixed B",CHISEL,HAMMER,Study1,F,9,35,STUDY,8,8,,Study/JOL,"Study Phase2",8002,,,-1,-1,,,,1
W10098703_CMK,f6mvyf1n9i,Nick_Dissertation_EX2_EP,1,136,2022-01-09T02:25:01+00:00,8.5429770946503,2,Mixed_Stim.csv,READVersionB.csv,"Read Mixed B","Read Mixed B",DIETARY,SACKING,Study1,U,67,38,STUDY,8,8,,Study/JOL,"Study Phase2",8002,,,-1,-1,,,,1
W10098703_CMK,f6mvyf1n9i,Nick_Dissertation_EX2_EP,1,137,2022-01-09T02:25:10+00:00,8.5014228820801,2,Mixed_Stim.csv,READVersionB.csv,"Read Mixed B","Read Mixed B",DISCOVER,FLOOR,Study1,U,71,26,STUDY,8,8,,Study/JOL,"Study Phase2",8002,,,-1,-1,,,,1
W10098703_CMK,f6mvyf1n9i,Nick_Dissertation_EX2_EP,1,138,2022-01-09T02:25:18+00:00,8.5050640106201,2,Mixed_Stim.csv,READVersionB.csv,"Read Mixed B","Read Mixed B",REVOLUTION,WAR,Study1,F,20,37,STUDY,8,8,,Study/JOL,"Study Phase2",8004,,,-1,-1,,,,1
W10098703_CMK,f6mvyf1n9i,Nick_Dissertation_EX2_EP,1,139,2022-01-09T02:25:27+00:00,8.6502561569214,2,Mixed_Stim.csv,READVersionB.csv,"Read Mixed B","Read Mixed B",FIX,HAND,Study1,U,75,9,STUDY,8,8,,Study/JOL,"Study Phase2",8001,,,-1,-1,,,,1
W10098703_CMK,f6mvyf1n9i,Nick_Dissertation_EX2_EP,1,140,2022-01-09T02:25:35+00:00,8.4330148696899,2,Mixed_Stim.csv,READVersionB.csv,"Read Mixed B","Read Mixed B",LIFT,WOMAN,Study1,U,69,39,STUDY,8,8,,Study/JOL,"Study Phase2",8002,,,-1,-1,,,,1
W10098703_CMK,f6mvyf1n9i,Nick_Dissertation_EX2_EP,1,141,2022-01-09T02:25:44+00:00,8.4967460632324,2,Mixed_Stim.csv,READVersionB.csv,"Read Mixed B","Read Mixed B",MOON,SPACE,BUFFER2,Buffer,89,48,STUDY,8,8,,Study/JOL,BUFFER4,8003,,,-1,-1,,,,1
W10098703_CMK,f6mvyf1n9i,Nick_Dissertation_EX2_EP,1,142,2022-01-09T02:25:53+00:00,8.5841388702393,2,Mixed_Stim.csv,READVersionB.csv,"Read Mixed B","Read Mixed B",GEESE,GOOSE,BUFFER2,Buffer,86,50,STUDY,8,8,,Study/JOL,BUFFER4,8001,,,-1,-1,,,,1
W10098703_CMK,f6mvyf1n9i,Nick_Dissertation_EX2_EP,1,143,2022-01-09T02:26:01+00:00,8.4608201980591,2,Mixed_Stim.csv,READVersionB.csv,"Read Mixed B","Read Mixed B",MALT,CHOCOLATE,BUFFER2,Buffer,88,47,STUDY,8,8,,Study/JOL,BUFFER4,8004,,,-1,-1,,,,1
W10098703_CMK,f6mvyf1n9i,Nick_Dissertation_EX2_EP,1,144,2022-01-09T02:26:09+00:00,8.444632768631,2,Mixed_Stim.csv,READVersionB.csv,"Read Mixed B","Read Mixed B",THING,STUFF,BUFFER2,Buffer,90,49,STUDY,8,8,,Study/JOL,BUFFER4,8002,,,-1,-1,,,,1
W10098703_CMK,f6mvyf1n9i,Nick_Dissertation_EX2_EP,1,145,2022-01-09T02:26:18+00:00,8.5584211349487,2,Mixed_Stim.csv,READVersionB.csv,"Read Mixed B","Read Mixed B",SHERRIF,POLICE,BUFFER2,Buffer,87,51,STUDY,8,8,,Study/JOL,BUFFER4,8001,,,-1,-1,,,,1
W10098703_CMK,f6mvyf1n9i,Nick_Dissertation_EX2_EP,1,146,2022-01-09T02:26:21+00:00,3.4144170284271,2,Mixed_Stim.csv,READVersionB.csv,"Read Mixed B","Read Mixed B",,,,,,0,Instruct,User,-,"You have completed this section. Please press Enter.",Filler_Instruction,Instruct5,2930,,,-1,-1,,,,1
W10098703_CMK,f6mvyf1n9i,Nick_Dissertation_EX2_EP,1,147,2022-01-09T02:28:22+00:00,120.92529892921,2,Mixed_Stim.csv,READVersionB.csv,"Read Mixed B","Read Mixed B",,,,,,0,FreeRecall,120,120,"Please list the 50 US states in reverse alphabetical order (z - a). The task will automatically advance to the next screen after two minutes.",,Filler2,120000,"wyoming wisconsin vermont utah texas ohio nevada new york new mexico minisota michigan",0,10380,118369,0,0,,1
W10098703_CMK,f6mvyf1n9i,Nick_Dissertation_EX2_EP,1,148,2022-01-09T02:28:40+00:00,18.07296204567,2,Mixed_Stim.csv,READVersionB.csv,"Read Mixed B","Read Mixed B",,,,,,0,Instruct,-,10,"You will now be presented with the first word from each of the previously studied item pairs. Please type the missing word. If you do not know the word, you may guess or press Enter to skip forward to the next pair.",,Instruct6,17570,,,-1,-1,,,,1
W10098703_CMK,f6mvyf1n9i,Nick_Dissertation_EX2_EP,1,149,2022-01-09T02:28:46+00:00,5.6720750331879,2,Mixed_Stim.csv,READVersionB.csv,"Read Mixed B","Read Mixed B",EDITOR,NEWS,Study1,F,10,22,Test,User,-,,Recall,Recall2,5140,journal,18.181818181818,2806,3819,0,0,,1
W10098703_CMK,f6mvyf1n9i,Nick_Dissertation_EX2_EP,1,150,2022-01-09T02:28:50+00:00,4.1641328334808,2,Mixed_Stim.csv,READVersionB.csv,"Read Mixed B","Read Mixed B",CASH,WOULD,Study1,U,83,29,Test,User,-,,Recall,Recall2,3814,money,20,992,2382,0,0,,1
W10098703_CMK,f6mvyf1n9i,Nick_Dissertation_EX2_EP,1,151,2022-01-09T02:28:59+00:00,8.9182510375977,2,Mixed_Stim.csv,READVersionB.csv,"Read Mixed B","Read Mixed B",PUSHER,CLUTTER,Study1,U,66,12,Test,User,-,,Recall,Recall2,8208,clutter,100,5536,6868,1,1,,1
W10098703_CMK,f6mvyf1n9i,Nick_Dissertation_EX2_EP,1,152,2022-01-09T02:29:04+00:00,4.3696870803833,2,Mixed_Stim.csv,READVersionB.csv,"Read Mixed B","Read Mixed B",MACHINE,POSITION,Study1,U,76,42,Test,User,-,,Recall,Recall2,3608,pull,16.666666666667,1660,2275,0,0,,1
W10098703_CMK,f6mvyf1n9i,Nick_Dissertation_EX2_EP,1,153,2022-01-09T02:29:11+00:00,7.1669580936432,2,Mixed_Stim.csv,READVersionB.csv,"Read Mixed B","Read Mixed B",HYGIENE,CLEAN,Study1,F,17,36,Test,User,-,,Recall,Recall2,6693,clean,100,3954,4538,1,1,,1
W10098703_CMK,f6mvyf1n9i,Nick_Dissertation_EX2_EP,1,154,2022-01-09T02:29:16+00:00,5.690673828125,2,Mixed_Stim.csv,READVersionB.csv,"Read Mixed B","Read Mixed B",KING,VASE,Study1,U,85,11,Test,User,-,,Recall,Recall2,4470,vase,100,2501,3074,1,1,,1
W10098703_CMK,f6mvyf1n9i,Nick_Dissertation_EX2_EP,1,155,2022-01-09T02:29:30+00:00,13.310770988464,2,Mixed_Stim.csv,READVersionB.csv,"Read Mixed B","Read Mixed B",DEBATE,SIGHT,Study1,U,73,18,Test,User,-,,Recall,Recall2,12337,sight,100,9852,10300,1,1,,1
W10098703_CMK,f6mvyf1n9i,Nick_Dissertation_EX2_EP,1,156,2022-01-09T02:29:36+00:00,6.1539771556854,2,Mixed_Stim.csv,READVersionB.csv,"Read Mixed B","Read Mixed B",WAY,OUT,Study1,F,16,14,Test,User,-,,Recall,Recall2,5634,out,100,3527,3722,1,1,,1
W10098703_CMK,f6mvyf1n9i,Nick_Dissertation_EX2_EP,1,157,2022-01-09T02:29:50+00:00,14.153498888016,2,Mixed_Stim.csv,READVersionB.csv,"Read Mixed B","Read Mixed B",HIDE,SICK,Study1,U,84,24,Test,User,-,,Recall,Recall2,13605,,0,8069,8668,0,0,,1
W10098703_CMK,f6mvyf1n9i,Nick_Dissertation_EX2_EP,1,158,2022-01-09T02:29:54+00:00,3.9322869777679,2,Mixed_Stim.csv,READVersionB.csv,"Read Mixed B","Read Mixed B",HERD,COW,Study1,F,22,46,Test,User,-,,Recall,Recall2,3260,cow,100,1588,1828,1,1,,1
W10098703_CMK,f6mvyf1n9i,Nick_Dissertation_EX2_EP,1,159,2022-01-09T02:29:58+00:00,4.0121459960938,2,Mixed_Stim.csv,READVersionB.csv,"Read Mixed B","Read Mixed B",TUNA,FISH,Study1,F,25,45,Test,User,-,,Recall,Recall2,3216,fish,100,1458,1794,1,1,,1
W10098703_CMK,f6mvyf1n9i,Nick_Dissertation_EX2_EP,1,160,2022-01-09T02:30:04+00:00,5.9733519554138,2,Mixed_Stim.csv,READVersionB.csv,"Read Mixed B","Read Mixed B",ROOT,PLANT,Study1,F,13,16,Test,User,-,,Recall,Recall2,5141,plant,100,2203,3781,1,1,,1
W10098703_CMK,f6mvyf1n9i,Nick_Dissertation_EX2_EP,1,161,2022-01-09T02:30:10+00:00,5.862410068512,2,Mixed_Stim.csv,READVersionB.csv,"Read Mixed B","Read Mixed B",STRONG,ACCIDENT,Study1,U,80,19,Test,User,-,,Recall,Recall2,5407,,0,-1,-1,0,0,,1
W10098703_CMK,f6mvyf1n9i,Nick_Dissertation_EX2_EP,1,162,2022-01-09T02:30:15+00:00,5.4962849617004,2,Mixed_Stim.csv,READVersionB.csv,"Read Mixed B","Read Mixed B",VALLEY,ADD,Study1,U,82,34,Test,User,-,,Recall,Recall2,4937,see,0,3152,3582,0,0,,1
W10098703_CMK,f6mvyf1n9i,Nick_Dissertation_EX2_EP,1,163,2022-01-09T02:30:21+00:00,6.106320142746,2,Mixed_Stim.csv,READVersionB.csv,"Read Mixed B","Read Mixed B",DIGESTION,STOMACH,Study1,F,7,8,Test,User,-,,Recall,Recall2,5330,stomach,100,1751,3145,1,1,,1
W10098703_CMK,f6mvyf1n9i,Nick_Dissertation_EX2_EP,1,164,2022-01-09T02:30:27+00:00,5.2121298313141,2,Mixed_Stim.csv,READVersionB.csv,"Read Mixed B","Read Mixed B",DELINQUENT,BAD,Study1,F,6,43,Test,User,-,,Recall,Recall2,4568,,0,-1,-1,0,0,,1
W10098703_CMK,f6mvyf1n9i,Nick_Dissertation_EX2_EP,1,165,2022-01-09T02:30:32+00:00,5.5464432239532,2,Mixed_Stim.csv,READVersionB.csv,"Read Mixed B","Read Mixed B",BRIDGE,WATER,Study1,F,18,15,Test,User,-,,Recall,Recall2,5006,,0,-1,-1,0,0,,1
W10098703_CMK,f6mvyf1n9i,Nick_Dissertation_EX2_EP,1,166,2022-01-09T02:30:49+00:00,16.469844818115,2,Mixed_Stim.csv,READVersionB.csv,"Read Mixed B","Read Mixed B",LIFT,WOMAN,Study1,U,69,39,Test,User,-,,Recall,Recall2,15939,,0,-1,-1,0,0,,1
W10098703_CMK,f6mvyf1n9i,Nick_Dissertation_EX2_EP,1,167,2022-01-09T02:31:04+00:00,14.925047159195,2,Mixed_Stim.csv,READVersionB.csv,"Read Mixed B","Read Mixed B",BITTER,COLD,Study1,F,12,44,Test,User,-,,Recall,Recall2,14450,,0,-1,-1,0,0,,1
W10098703_CMK,f6mvyf1n9i,Nick_Dissertation_EX2_EP,1,168,2022-01-09T02:31:18+00:00,14.007336854935,2,Mixed_Stim.csv,READVersionB.csv,"Read Mixed B","Read Mixed B",SWAN,BIRD,Study1,F,14,32,Test,User,-,,Recall,Recall2,13322,,0,-1,-1,0,0,,1
W10098703_CMK,f6mvyf1n9i,Nick_Dissertation_EX2_EP,1,169,2022-01-09T02:31:21+00:00,3.2640399932861,2,Mixed_Stim.csv,READVersionB.csv,"Read Mixed B","Read Mixed B",PAW,DOG,Study1,F,15,13,Test,User,-,,Recall,Recall2,2766,dog,100,1321,1599,1,1,,1
W10098703_CMK,f6mvyf1n9i,Nick_Dissertation_EX2_EP,1,170,2022-01-09T02:31:26+00:00,5.0462560653687,2,Mixed_Stim.csv,READVersionB.csv,"Read Mixed B","Read Mixed B",CREDIT,CARD,Study1,F,23,31,Test,User,-,,Recall,Recall2,4565,card,100,1223,2297,1,1,,1
W10098703_CMK,f6mvyf1n9i,Nick_Dissertation_EX2_EP,1,171,2022-01-09T02:31:46+00:00,19.908587932587,2,Mixed_Stim.csv,READVersionB.csv,"Read Mixed B","Read Mixed B",DISCOVER,FLOOR,Study1,U,71,26,Test,User,-,,Recall,Recall2,19466,,0,10418,10978,0,0,,1
W10098703_CMK,f6mvyf1n9i,Nick_Dissertation_EX2_EP,1,172,2022-01-09T02:31:59+00:00,13.160460948944,2,Mixed_Stim.csv,READVersionB.csv,"Read Mixed B","Read Mixed B",SUGAR,RIDDLE,Study1,U,81,27,Test,User,-,,Recall,Recall2,12513,taste,18.181818181818,6596,8870,0,0,,1
W10098703_CMK,f6mvyf1n9i,Nick_Dissertation_EX2_EP,1,173,2022-01-09T02:32:03+00:00,4.320023059845,2,Mixed_Stim.csv,READVersionB.csv,"Read Mixed B","Read Mixed B",PARK,HUNGRY,Study1,U,68,20,Test,User,-,,Recall,Recall2,3881,hungry,100,1750,2567,1,1,,1
W10098703_CMK,f6mvyf1n9i,Nick_Dissertation_EX2_EP,1,174,2022-01-09T02:32:07+00:00,3.7575681209564,2,Mixed_Stim.csv,READVersionB.csv,"Read Mixed B","Read Mixed B",ARTERY,BRONZE,Study1,U,74,41,Test,User,-,,Recall,Recall2,3250,heart,18.181818181818,1437,1844,0,0,,1
W10098703_CMK,f6mvyf1n9i,Nick_Dissertation_EX2_EP,1,175,2022-01-09T02:32:12+00:00,4.6695139408112,2,Mixed_Stim.csv,READVersionB.csv,"Read Mixed B","Read Mixed B",CHISEL,HAMMER,Study1,F,9,35,Test,User,-,,Recall,Recall2,4045,hammer,100,2113,2710,1,1,,1
W10098703_CMK,f6mvyf1n9i,Nick_Dissertation_EX2_EP,1,176,2022-01-09T02:32:17+00:00,5.6284079551697,2,Mixed_Stim.csv,READVersionB.csv,"Read Mixed B","Read Mixed B",ORCHID,FLOWER,Study1,F,24,25,Test,User,-,,Recall,Recall2,4761,flower,100,1132,1798,1,1,,1
W10098703_CMK,f6mvyf1n9i,Nick_Dissertation_EX2_EP,1,177,2022-01-09T02:32:24+00:00,6.2103800773621,2,Mixed_Stim.csv,READVersionB.csv,"Read Mixed B","Read Mixed B",DISCUSSION,TALK,Study1,F,21,7,Test,User,-,,Recall,Recall2,5167,talk,100,1444,2931,1,1,,1
W10098703_CMK,f6mvyf1n9i,Nick_Dissertation_EX2_EP,1,178,2022-01-09T02:32:31+00:00,6.992931842804,2,Mixed_Stim.csv,READVersionB.csv,"Read Mixed B","Read Mixed B",SOON,BELT,Study1,U,70,28,Test,User,-,,Recall,Recall2,6443,discover,16.666666666667,2361,3682,0,0,,1
W10098703_CMK,f6mvyf1n9i,Nick_Dissertation_EX2_EP,1,179,2022-01-09T02:32:48+00:00,17.840501070023,2,Mixed_Stim.csv,READVersionB.csv,"Read Mixed B","Read Mixed B",DEATH,BUSINESS,Study1,U,72,10,Test,User,-,,Recall,Recall2,17116,,0,-1,-1,0,0,,1
W10098703_CMK,f6mvyf1n9i,Nick_Dissertation_EX2_EP,1,180,2022-01-09T02:32:55+00:00,7.0433230400085,2,Mixed_Stim.csv,READVersionB.csv,"Read Mixed B","Read Mixed B",ALLOW,TUCK,Study1,U,78,40,Test,User,-,,Recall,Recall2,6610,,0,4285,4435,0,0,,1
W10098703_CMK,f6mvyf1n9i,Nick_Dissertation_EX2_EP,1,181,2022-01-09T02:33:00+00:00,4.3677320480347,2,Mixed_Stim.csv,READVersionB.csv,"Read Mixed B","Read Mixed B",REVOLUTION,WAR,Study1,F,20,37,Test,User,-,,Recall,Recall2,3825,war,100,2212,2464,1,1,,1
W10098703_CMK,f6mvyf1n9i,Nick_Dissertation_EX2_EP,1,182,2022-01-09T02:33:04+00:00,3.9967050552368,2,Mixed_Stim.csv,READVersionB.csv,"Read Mixed B","Read Mixed B",ART,LION,Study1,U,79,23,Test,User,-,,Recall,Recall2,3553,lion,100,1258,1744,1,1,,1
W10098703_CMK,f6mvyf1n9i,Nick_Dissertation_EX2_EP,1,183,2022-01-09T02:33:15+00:00,11.130733013153,2,Mixed_Stim.csv,READVersionB.csv,"Read Mixed B","Read Mixed B",DIETARY,SACKING,Study1,U,67,38,Test,User,-,,Recall,Recall2,10566,,0,-1,-1,0,0,,1
W10098703_CMK,f6mvyf1n9i,Nick_Dissertation_EX2_EP,1,184,2022-01-09T02:33:21+00:00,6.1169259548187,2,Mixed_Stim.csv,READVersionB.csv,"Read Mixed B","Read Mixed B",HAPPY,CAR,Study1,U,77,33,Test,User,-,,Recall,Recall2,5786,,0,-1,-1,0,0,,1
W10098703_CMK,f6mvyf1n9i,Nick_Dissertation_EX2_EP,1,185,2022-01-09T02:33:30+00:00,8.6402809619904,2,Mixed_Stim.csv,READVersionB.csv,"Read Mixed B","Read Mixed B",WAGE,MONEY,Study1,F,8,17,Test,User,-,,Recall,Recall2,8242,salary,18.181818181818,1428,4530,0,0,,1
W10098703_CMK,f6mvyf1n9i,Nick_Dissertation_EX2_EP,1,186,2022-01-09T02:33:36+00:00,6.7741348743439,2,Mixed_Stim.csv,READVersionB.csv,"Read Mixed B","Read Mixed B",HORNET,STING,Study1,F,11,21,Test,User,-,,Recall,Recall2,6273,sting,100,1794,3780,1,1,,1
W10098703_CMK,f6mvyf1n9i,Nick_Dissertation_EX2_EP,1,187,2022-01-09T02:33:38+00:00,1.1363000869751,2,Mixed_Stim.csv,READVersionB.csv,"Read Mixed B","Read Mixed B",FIX,HAND,Study1,U,75,9,Test,User,-,,Recall,Recall2,695,,0,-1,-1,0,0,,1
W10098703_CMK,f6mvyf1n9i,Nick_Dissertation_EX2_EP,1,188,2022-01-09T02:33:41+00:00,3.7714149951935,2,Mixed_Stim.csv,READVersionB.csv,"Read Mixed B","Read Mixed B",GEOLOGY,ROCK,Study1,F,19,30,Test,User,-,,Recall,Recall2,3442,rock,100,1421,1887,1,1,,1
W10098703_CMK,f6mvyf1n9i,Nick_Dissertation_EX2_EP,1,189,2022-01-09T02:33:44+00:00,2.6568999290466,2,Mixed_Stim.csv,READVersionB.csv,"Read Mixed B","Read Mixed B",,,,,,0,Instruct,User,-,"You have completed this section. Please press Enter.",,Instruct7,2146,,,-1,-1,,,,1
W10098703_CMK,f6mvyf1n9i,Nick_Dissertation_EX2_EP,1,190,2022-01-09T02:33:48+00:00,3.9669489860535,2,Mixed_Stim.csv,READVersionB.csv,"Read Mixed B","Read Mixed B",,,,,,0,Instruct,User,-,"The following screen will ask you a few questions abour your experience today. You must complete these questions to receive credit.",,Instruct8,3431,,,-1,-1,,,,1
