Username,ID,ExperimentName,Session,Trial,Date,TimeDif,"Condition Number","Stimuli File","Order File","Condition Description","Condition Notes",Stimuli*Cue,Stimuli*Answer,Stimuli*Shuffle,"Stimuli*Stimuli Notes",Stimuli*Value,Procedure*Item,"Procedure*Trial Type","Procedure*Max Time","Procedure*Min Time",Procedure*Text,"Procedure*Procedure Notes",Procedure*Shuffle,Response*RT,Response*Response,Response*Accuracy,Response*RTfirst,Response*RTlast,Response*strictAcc,Response*lenientAcc,Response*focus,Response*Focus
w10103983,y8r4bh1e3k,Nick_Dissertation_EX2_EP,1,1,2022-01-12T01:43:02+00:00,12.730890035629,4,Pure_Forward.csv,READVersionB.csv,"Read Pure F B","Read Pure F B",,,,,,0,Instruct,-,10,"Please study each of the following word pairs. Remember that your memory will be tested! Each pair will be displayed on the computer screen and will automatically advance to the next pair. Press ENTER when you are ready to begin.",Initial_Instruct,Instruct1,11594,,,-1,-1,,,,1
w10103983,y8r4bh1e3k,Nick_Dissertation_EX2_EP,1,2,2022-01-12T01:43:10+00:00,8.4954900741577,4,Pure_Forward.csv,READVersionB.csv,"Read Pure F B","Read Pure F B",SHRIMP,FISH,BUFFER3,Buffer,93,52,STUDY,8,8,,Study/JOL,BUFFER,8001,,,-1,-1,,,,1
w10103983,y8r4bh1e3k,Nick_Dissertation_EX2_EP,1,3,2022-01-12T01:43:20+00:00,9.4016928672791,4,Pure_Forward.csv,READVersionB.csv,"Read Pure F B","Read Pure F B",NOODLE,STRING,BUFFER3,Buffer,92,56,STUDY,8,8,,Study/JOL,BUFFER,8001,,,-1,-1,,,,1
w10103983,y8r4bh1e3k,Nick_Dissertation_EX2_EP,1,4,2022-01-12T01:43:29+00:00,9.4508321285248,4,Pure_Forward.csv,READVersionB.csv,"Read Pure F B","Read Pure F B",CARROT,POTATO,BUFFER3,Buffer,91,53,STUDY,8,8,,Study/JOL,BUFFER,8002,,,-1,-1,,,,1
w10103983,y8r4bh1e3k,Nick_Dissertation_EX2_EP,1,5,2022-01-12T01:43:38+00:00,8.5517199039459,4,Pure_Forward.csv,READVersionB.csv,"Read Pure F B","Read Pure F B",CAMP,ADVENTURE,BUFFER3,Buffer,95,54,STUDY,8,8,,Study/JOL,BUFFER,8001,,,-1,-1,,,,1
w10103983,y8r4bh1e3k,Nick_Dissertation_EX2_EP,1,6,2022-01-12T01:43:46+00:00,8.4889550209045,4,Pure_Forward.csv,READVersionB.csv,"Read Pure F B","Read Pure F B",ICE,FROZEN,BUFFER3,Buffer,94,55,STUDY,8,8,,Study/JOL,BUFFER,8001,,,-1,-1,,,,1
w10103983,y8r4bh1e3k,Nick_Dissertation_EX2_EP,1,7,2022-01-12T01:43:55+00:00,8.551766872406,4,Pure_Forward.csv,READVersionB.csv,"Read Pure F B","Read Pure F B",DINE,EAT,Study2,F,171,84,STUDY,8,8,,Study/JOL,"Study Phase",8001,,,-1,-1,,,,1
w10103983,y8r4bh1e3k,Nick_Dissertation_EX2_EP,1,8,2022-01-12T01:44:03+00:00,8.5651512145996,4,Pure_Forward.csv,READVersionB.csv,"Read Pure F B","Read Pure F B",STENCH,SMELL,Study2,F,112,62,STUDY,8,8,,Study/JOL,"Study Phase",8003,,,-1,-1,,,,1
w10103983,y8r4bh1e3k,Nick_Dissertation_EX2_EP,1,9,2022-01-12T01:44:12+00:00,8.5298058986664,4,Pure_Forward.csv,READVersionB.csv,"Read Pure F B","Read Pure F B",ADJOURN,END,Study2,F,161,65,STUDY,8,8,,Study/JOL,"Study Phase",8002,,,-1,-1,,,,1
w10103983,y8r4bh1e3k,Nick_Dissertation_EX2_EP,1,10,2022-01-12T01:44:21+00:00,8.9598660469055,4,Pure_Forward.csv,READVersionB.csv,"Read Pure F B","Read Pure F B",FURRY,DOG,Study2,F,162,68,STUDY,8,8,,Study/JOL,"Study Phase",8001,,,-1,-1,,,,1
w10103983,y8r4bh1e3k,Nick_Dissertation_EX2_EP,1,11,2022-01-12T01:44:31+00:00,9.7930228710175,4,Pure_Forward.csv,READVersionB.csv,"Read Pure F B","Read Pure F B",WORD,SENTENCE,Study2,F,101,67,STUDY,8,8,,Study/JOL,"Study Phase",8001,,,-1,-1,,,,1
w10103983,y8r4bh1e3k,Nick_Dissertation_EX2_EP,1,12,2022-01-12T01:44:39+00:00,8.4351711273193,4,Pure_Forward.csv,READVersionB.csv,"Read Pure F B","Read Pure F B",MULE,DONKEY,Study2,F,168,88,STUDY,8,8,,Study/JOL,"Study Phase",8002,,,-1,-1,,,,1
w10103983,y8r4bh1e3k,Nick_Dissertation_EX2_EP,1,13,2022-01-12T01:44:48+00:00,8.5951249599457,4,Pure_Forward.csv,READVersionB.csv,"Read Pure F B","Read Pure F B",DRIVER,CAR,Study2,F,166,77,STUDY,8,8,,Study/JOL,"Study Phase",8000,,,-1,-1,,,,1
w10103983,y8r4bh1e3k,Nick_Dissertation_EX2_EP,1,14,2022-01-12T01:44:56+00:00,8.4682559967041,4,Pure_Forward.csv,READVersionB.csv,"Read Pure F B","Read Pure F B",DROWSY,SLEEP,Study2,F,111,71,STUDY,8,8,,Study/JOL,"Study Phase",8001,,,-1,-1,,,,1
w10103983,y8r4bh1e3k,Nick_Dissertation_EX2_EP,1,15,2022-01-12T01:45:05+00:00,8.4939110279083,4,Pure_Forward.csv,READVersionB.csv,"Read Pure F B","Read Pure F B",CACTUS,PLANT,Study2,F,158,86,STUDY,8,8,,Study/JOL,"Study Phase",8001,,,-1,-1,,,,1
w10103983,y8r4bh1e3k,Nick_Dissertation_EX2_EP,1,16,2022-01-12T01:45:13+00:00,8.483747959137,4,Pure_Forward.csv,READVersionB.csv,"Read Pure F B","Read Pure F B",ENOUGH,FULL,Study2,F,96,95,STUDY,8,8,,Study/JOL,"Study Phase",8001,,,-1,-1,,,,1
w10103983,y8r4bh1e3k,Nick_Dissertation_EX2_EP,1,17,2022-01-12T01:45:22+00:00,8.5922350883484,4,Pure_Forward.csv,READVersionB.csv,"Read Pure F B","Read Pure F B",DIVISION,MATH,Study2,F,103,59,STUDY,8,8,,Study/JOL,"Study Phase",8002,,,-1,-1,,,,1
w10103983,y8r4bh1e3k,Nick_Dissertation_EX2_EP,1,18,2022-01-12T01:45:30+00:00,8.5103650093079,4,Pure_Forward.csv,READVersionB.csv,"Read Pure F B","Read Pure F B",CHOP,CUT,Study2,F,167,61,STUDY,8,8,,Study/JOL,"Study Phase",8005,,,-1,-1,,,,1
w10103983,y8r4bh1e3k,Nick_Dissertation_EX2_EP,1,19,2022-01-12T01:45:39+00:00,8.4944758415222,4,Pure_Forward.csv,READVersionB.csv,"Read Pure F B","Read Pure F B",BLAZE,FIRE,Study2,F,115,92,STUDY,8,8,,Study/JOL,"Study Phase",8001,,,-1,-1,,,,1
w10103983,y8r4bh1e3k,Nick_Dissertation_EX2_EP,1,20,2022-01-12T01:45:47+00:00,8.5117089748383,4,Pure_Forward.csv,READVersionB.csv,"Read Pure F B","Read Pure F B",SCALP,HEAD,Study2,F,165,93,STUDY,8,8,,Study/JOL,"Study Phase",8002,,,-1,-1,,,,1
w10103983,y8r4bh1e3k,Nick_Dissertation_EX2_EP,1,21,2022-01-12T01:45:56+00:00,8.64297914505,4,Pure_Forward.csv,READVersionB.csv,"Read Pure F B","Read Pure F B",SIP,DRINK,Study2,F,97,73,STUDY,8,8,,Study/JOL,"Study Phase",8003,,,-1,-1,,,,1
w10103983,y8r4bh1e3k,Nick_Dissertation_EX2_EP,1,22,2022-01-12T01:46:05+00:00,8.5609569549561,4,Pure_Forward.csv,READVersionB.csv,"Read Pure F B","Read Pure F B",CHORE,WORK,Study2,F,109,80,STUDY,8,8,,Study/JOL,"Study Phase",8001,,,-1,-1,,,,1
w10103983,y8r4bh1e3k,Nick_Dissertation_EX2_EP,1,23,2022-01-12T01:46:13+00:00,8.5292360782623,4,Pure_Forward.csv,READVersionB.csv,"Read Pure F B","Read Pure F B",DETECTIVE,MYSTERY,Study2,F,160,76,STUDY,8,8,,Study/JOL,"Study Phase",8002,,,-1,-1,,,,1
w10103983,y8r4bh1e3k,Nick_Dissertation_EX2_EP,1,24,2022-01-12T01:46:22+00:00,8.5492649078369,4,Pure_Forward.csv,READVersionB.csv,"Read Pure F B","Read Pure F B",CHILI,HOT,Study2,F,107,85,STUDY,8,8,,Study/JOL,"Study Phase",8002,,,-1,-1,,,,1
w10103983,y8r4bh1e3k,Nick_Dissertation_EX2_EP,1,25,2022-01-12T01:46:30+00:00,8.5603311061859,4,Pure_Forward.csv,READVersionB.csv,"Read Pure F B","Read Pure F B",SHEARS,SCISSORS,Study2,F,172,72,STUDY,8,8,,Study/JOL,"Study Phase",8001,,,-1,-1,,,,1
w10103983,y8r4bh1e3k,Nick_Dissertation_EX2_EP,1,26,2022-01-12T01:46:39+00:00,8.5114707946777,4,Pure_Forward.csv,READVersionB.csv,"Read Pure F B","Read Pure F B",DIVISION,MATH,Study2,F,103,59,STUDY,8,8,,Study/JOL,"Study Phase",8001,,,-1,-1,,,,1
w10103983,y8r4bh1e3k,Nick_Dissertation_EX2_EP,1,27,2022-01-12T01:46:47+00:00,8.5383450984955,4,Pure_Forward.csv,READVersionB.csv,"Read Pure F B","Read Pure F B",LITTER,TRASH,Study2,F,163,66,STUDY,8,8,,Study/JOL,"Study Phase",8002,,,-1,-1,,,,1
w10103983,y8r4bh1e3k,Nick_Dissertation_EX2_EP,1,28,2022-01-12T01:46:56+00:00,8.4702680110931,4,Pure_Forward.csv,READVersionB.csv,"Read Pure F B","Read Pure F B",FANTASTIC,GREAT,Study2,F,105,90,STUDY,8,8,,Study/JOL,"Study Phase",8002,,,-1,-1,,,,1
w10103983,y8r4bh1e3k,Nick_Dissertation_EX2_EP,1,29,2022-01-12T01:47:05+00:00,8.9276399612427,4,Pure_Forward.csv,READVersionB.csv,"Read Pure F B","Read Pure F B",CHERRY,RED,Study2,F,164,60,STUDY,8,8,,Study/JOL,"Study Phase",8001,,,-1,-1,,,,1
w10103983,y8r4bh1e3k,Nick_Dissertation_EX2_EP,1,30,2022-01-12T01:47:13+00:00,8.5075221061707,4,Pure_Forward.csv,READVersionB.csv,"Read Pure F B","Read Pure F B",SHOELACE,TIE,Study2,F,159,94,STUDY,8,8,,Study/JOL,"Study Phase",8002,,,-1,-1,,,,1
w10103983,y8r4bh1e3k,Nick_Dissertation_EX2_EP,1,31,2022-01-12T01:47:22+00:00,8.4983019828796,4,Pure_Forward.csv,READVersionB.csv,"Read Pure F B","Read Pure F B",EXTENSION,LONG,Study2,F,156,70,STUDY,8,8,,Study/JOL,"Study Phase",8002,,,-1,-1,,,,1
w10103983,y8r4bh1e3k,Nick_Dissertation_EX2_EP,1,32,2022-01-12T01:47:30+00:00,8.5217769145966,4,Pure_Forward.csv,READVersionB.csv,"Read Pure F B","Read Pure F B",ROOT,PLANT,Study1,F,13,23,STUDY,8,8,,Study/JOL,"Study Phase",8001,,,-1,-1,,,,0.906
w10103983,y8r4bh1e3k,Nick_Dissertation_EX2_EP,1,33,2022-01-12T01:47:39+00:00,8.4917430877686,4,Pure_Forward.csv,READVersionB.csv,"Read Pure F B","Read Pure F B",ATTIRE,CLOTHES,Study2,F,113,89,STUDY,8,8,,Study/JOL,"Study Phase",8003,,,-1,-1,,,,1
w10103983,y8r4bh1e3k,Nick_Dissertation_EX2_EP,1,34,2022-01-12T01:47:47+00:00,8.5067899227142,4,Pure_Forward.csv,READVersionB.csv,"Read Pure F B","Read Pure F B",FEUD,FIGHT,Study2,F,173,78,STUDY,8,8,,Study/JOL,"Study Phase",8001,,,-1,-1,,,,0.862
w10103983,y8r4bh1e3k,Nick_Dissertation_EX2_EP,1,35,2022-01-12T01:47:56+00:00,8.5657300949097,4,Pure_Forward.csv,READVersionB.csv,"Read Pure F B","Read Pure F B",AFFECTION,LOVE,Study2,F,175,87,STUDY,8,8,,Study/JOL,"Study Phase",8000,,,-1,-1,,,,1
w10103983,y8r4bh1e3k,Nick_Dissertation_EX2_EP,1,36,2022-01-12T01:48:04+00:00,8.5964648723602,4,Pure_Forward.csv,READVersionB.csv,"Read Pure F B","Read Pure F B",WASP,BUG,Study2,F,102,57,STUDY,8,8,,Study/JOL,"Study Phase",8000,,,-1,-1,,,,1
w10103983,y8r4bh1e3k,Nick_Dissertation_EX2_EP,1,37,2022-01-12T01:48:13+00:00,8.4726929664612,4,Pure_Forward.csv,READVersionB.csv,"Read Pure F B","Read Pure F B",PILOT,PLANE,Study2,F,114,79,STUDY,8,8,,Study/JOL,"Study Phase",8002,,,-1,-1,,,,1
w10103983,y8r4bh1e3k,Nick_Dissertation_EX2_EP,1,38,2022-01-12T01:48:21+00:00,8.6393280029297,4,Pure_Forward.csv,READVersionB.csv,"Read Pure F B","Read Pure F B",LATCH,KEY,Study2,F,106,63,STUDY,8,8,,Study/JOL,"Study Phase",8001,,,-1,-1,,,,1
w10103983,y8r4bh1e3k,Nick_Dissertation_EX2_EP,1,39,2022-01-12T01:48:31+00:00,9.3445689678192,4,Pure_Forward.csv,READVersionB.csv,"Read Pure F B","Read Pure F B",FAMINE,HUNGER,Study2,F,110,64,STUDY,8,8,,Study/JOL,"Study Phase",8002,,,-1,-1,,,,1
w10103983,y8r4bh1e3k,Nick_Dissertation_EX2_EP,1,40,2022-01-12T01:48:39+00:00,8.5302031040192,4,Pure_Forward.csv,READVersionB.csv,"Read Pure F B","Read Pure F B",SEIZE,TAKE,Study2,F,99,82,STUDY,8,8,,Study/JOL,"Study Phase",8001,,,-1,-1,,,,1
w10103983,y8r4bh1e3k,Nick_Dissertation_EX2_EP,1,41,2022-01-12T01:48:48+00:00,8.5585219860077,4,Pure_Forward.csv,READVersionB.csv,"Read Pure F B","Read Pure F B",ATTORNEY,LAW,Study2,F,104,75,STUDY,8,8,,Study/JOL,"Study Phase",8001,,,-1,-1,,,,1
w10103983,y8r4bh1e3k,Nick_Dissertation_EX2_EP,1,42,2022-01-12T01:48:56+00:00,8.4845170974731,4,Pure_Forward.csv,READVersionB.csv,"Read Pure F B","Read Pure F B",RACKET,BALL,Study2,F,108,74,STUDY,8,8,,Study/JOL,"Study Phase",8002,,,-1,-1,,,,1
w10103983,y8r4bh1e3k,Nick_Dissertation_EX2_EP,1,43,2022-01-12T01:49:06+00:00,9.1773009300232,4,Pure_Forward.csv,READVersionB.csv,"Read Pure F B","Read Pure F B",CHILL,COLD,Study2,F,174,96,STUDY,8,8,,Study/JOL,"Study Phase",8702,,,-1,-1,,,,0.808
w10103983,y8r4bh1e3k,Nick_Dissertation_EX2_EP,1,44,2022-01-12T01:49:15+00:00,9.5277259349823,4,Pure_Forward.csv,READVersionB.csv,"Read Pure F B","Read Pure F B",CLUE,GAME,Study2,F,157,69,STUDY,8,8,,Study/JOL,"Study Phase",8001,,,-1,-1,,,,0.636
w10103983,y8r4bh1e3k,Nick_Dissertation_EX2_EP,1,45,2022-01-12T01:49:24+00:00,8.5152781009674,4,Pure_Forward.csv,READVersionB.csv,"Read Pure F B","Read Pure F B",INCENSE,SMELL,Study2,F,170,81,STUDY,8,8,,Study/JOL,"Study Phase",8001,,,-1,-1,,,,1
w10103983,y8r4bh1e3k,Nick_Dissertation_EX2_EP,1,46,2022-01-12T01:49:33+00:00,9.3044159412384,4,Pure_Forward.csv,READVersionB.csv,"Read Pure F B","Read Pure F B",GROWTH,HEIGHT,Study2,F,100,91,STUDY,8,8,,Study/JOL,"Study Phase",8491,,,-1,-1,,,,0.684
w10103983,y8r4bh1e3k,Nick_Dissertation_EX2_EP,1,47,2022-01-12T01:49:42+00:00,8.6911520957947,4,Pure_Forward.csv,READVersionB.csv,"Read Pure F B","Read Pure F B",MONTH,YEAR,BUFFER4,Buffer,177,99,STUDY,8,8,,Study/JOL,BUFFER2,8141,,,-1,-1,,,,0
w10103983,y8r4bh1e3k,Nick_Dissertation_EX2_EP,1,48,2022-01-12T01:49:51+00:00,8.9252829551697,4,Pure_Forward.csv,READVersionB.csv,"Read Pure F B","Read Pure F B",OCTOBER,SPOOKY,BUFFER4,Buffer,180,97,STUDY,8,8,,Study/JOL,BUFFER2,8467,,,-1,-1,,,,0
w10103983,y8r4bh1e3k,Nick_Dissertation_EX2_EP,1,49,2022-01-12T01:49:59+00:00,8.9365129470825,4,Pure_Forward.csv,READVersionB.csv,"Read Pure F B","Read Pure F B",DAYS,WEEKS,BUFFER4,Buffer,176,98,STUDY,8,8,,Study/JOL,BUFFER2,8002,,,-1,-1,,,,0.848
w10103983,y8r4bh1e3k,Nick_Dissertation_EX2_EP,1,50,2022-01-12T01:50:13+00:00,13.104166984558,4,Pure_Forward.csv,READVersionB.csv,"Read Pure F B","Read Pure F B",TOOL,SHED,BUFFER4,Buffer,178,100,STUDY,8,8,,Study/JOL,BUFFER2,8344,,,-1,-1,,,,0.588
w10103983,y8r4bh1e3k,Nick_Dissertation_EX2_EP,1,51,2022-01-12T01:50:22+00:00,9.0243780612946,4,Pure_Forward.csv,READVersionB.csv,"Read Pure F B","Read Pure F B",SPRING,MARCH,BUFFER4,Buffer,179,101,STUDY,8,8,,Study/JOL,BUFFER2,8485,,,-1,-1,,,,0
w10103983,y8r4bh1e3k,Nick_Dissertation_EX2_EP,1,52,2022-01-12T01:50:30+00:00,8.2563710212708,4,Pure_Forward.csv,READVersionB.csv,"Read Pure F B","Read Pure F B",,,,,,0,Instruct,User,-,"You have completed this section. Please press Enter.",Filler_Instruction,Instruct2,7754,,,-1,-1,,,,0.727
w10103983,y8r4bh1e3k,Nick_Dissertation_EX2_EP,1,53,2022-01-12T01:52:30+00:00,120.51777791977,4,Pure_Forward.csv,READVersionB.csv,"Read Pure F B","Read Pure F B",,,,,,0,FreeRecall,120,120,"Please list the 50 US states in alphabetical order. The task will automatically advance to the next screen after two minutes.",,Filler1,120003,"Alabama Alaska Arizona Arkansas California Colorado Connecticut Delaware Florida Georgia Hawaii Idaho Illinois Indiana Iowa Kansas Kentucky Louisiana Maine Maryland Massachusetts Michigan Minnesota Mississippi Missouri Montana Nebraska Nevada New Hampshire New Jersey New Mexico New York North Carolina North Dakota Ohio Oklahoma Oregon Pennsylvania Rhode Island South Carolina South Dakota Tennessee Texas Utah Vermont Virginia Washington West Virginia Wisconsin Wyoming ",0,38547,89172,0,0,,0.949
w10103983,y8r4bh1e3k,Nick_Dissertation_EX2_EP,1,54,2022-01-12T01:52:41+00:00,10.7532351017,4,Pure_Forward.csv,READVersionB.csv,"Read Pure F B","Read Pure F B",,,,,,0,Instruct,-,10,"You will now be presented with the first word from each of the previously studied item pairs. Please type the missing word. If you do not know the word, you may guess or press Enter to skip forward to the next pair.",,Instruct3,10278,,,-1,-1,,,,1
w10103983,y8r4bh1e3k,Nick_Dissertation_EX2_EP,1,55,2022-01-12T01:52:54+00:00,12.466223955154,4,Pure_Forward.csv,READVersionB.csv,"Read Pure F B","Read Pure F B",CHILL,COLD,Study2,F,174,96,Test,User,-,,Recall,Recall1,11911,winter,0,9737,10918,0,0,,1
w10103983,y8r4bh1e3k,Nick_Dissertation_EX2_EP,1,56,2022-01-12T01:52:58+00:00,4.1841089725494,4,Pure_Forward.csv,READVersionB.csv,"Read Pure F B","Read Pure F B",EXTENSION,LONG,Study2,F,156,70,Test,User,-,,Recall,Recall1,3902,cord,25,2227,2998,0,0,,1
w10103983,y8r4bh1e3k,Nick_Dissertation_EX2_EP,1,57,2022-01-12T01:53:05+00:00,7.205461025238,4,Pure_Forward.csv,READVersionB.csv,"Read Pure F B","Read Pure F B",FURRY,DOG,Study2,F,162,68,Test,User,-,,Recall,Recall1,6738,jacket,0,4359,5774,0,0,,1
w10103983,y8r4bh1e3k,Nick_Dissertation_EX2_EP,1,58,2022-01-12T01:53:08+00:00,3.4417769908905,4,Pure_Forward.csv,READVersionB.csv,"Read Pure F B","Read Pure F B",CHORE,WORK,Study2,F,109,80,Test,User,-,,Recall,Recall1,3164,job,28.571428571429,1822,2223,0,0,,1
w10103983,y8r4bh1e3k,Nick_Dissertation_EX2_EP,1,59,2022-01-12T01:53:15+00:00,6.9879779815674,4,Pure_Forward.csv,READVersionB.csv,"Read Pure F B","Read Pure F B",FAMINE,HUNGER,Study2,F,110,64,Test,User,-,,Recall,Recall1,6231,"hungry ",83.333333333333,3897,5389,0,1,,1
w10103983,y8r4bh1e3k,Nick_Dissertation_EX2_EP,1,60,2022-01-12T01:53:22+00:00,6.2099070549011,4,Pure_Forward.csv,READVersionB.csv,"Read Pure F B","Read Pure F B",RACKET,BALL,Study2,F,108,74,Test,User,-,,Recall,Recall1,4636,ball,100,2699,3482,1,1,,1
w10103983,y8r4bh1e3k,Nick_Dissertation_EX2_EP,1,61,2022-01-12T01:53:29+00:00,6.927120923996,4,Pure_Forward.csv,READVersionB.csv,"Read Pure F B","Read Pure F B",STENCH,SMELL,Study2,F,112,62,Test,User,-,,Recall,Recall1,6406,trash,20,3825,5536,0,0,,1
w10103983,y8r4bh1e3k,Nick_Dissertation_EX2_EP,1,62,2022-01-12T01:53:33+00:00,4.7573020458221,4,Pure_Forward.csv,READVersionB.csv,"Read Pure F B","Read Pure F B",FEUD,FIGHT,Study2,F,173,78,Test,User,-,,Recall,Recall1,4247,fight,100,2077,3245,1,1,,1
w10103983,y8r4bh1e3k,Nick_Dissertation_EX2_EP,1,63,2022-01-12T01:53:38+00:00,4.8258669376373,4,Pure_Forward.csv,READVersionB.csv,"Read Pure F B","Read Pure F B",MULE,DONKEY,Study2,F,168,88,Test,User,-,,Recall,Recall1,4279,donkey,100,2254,3372,1,1,,1
w10103983,y8r4bh1e3k,Nick_Dissertation_EX2_EP,1,64,2022-01-12T01:53:43+00:00,4.4231519699097,4,Pure_Forward.csv,READVersionB.csv,"Read Pure F B","Read Pure F B",ATTIRE,CLOTHES,Study2,F,113,89,Test,User,-,,Recall,Recall1,3958,clothes,100,2039,3210,1,1,,1
w10103983,y8r4bh1e3k,Nick_Dissertation_EX2_EP,1,65,2022-01-12T01:53:48+00:00,5.4421319961548,4,Pure_Forward.csv,READVersionB.csv,"Read Pure F B","Read Pure F B",SHEARS,SCISSORS,Study2,F,172,72,Test,User,-,,Recall,Recall1,4802,scissors,100,1795,3913,1,1,,1
w10103983,y8r4bh1e3k,Nick_Dissertation_EX2_EP,1,66,2022-01-12T01:53:51+00:00,3.4162549972534,4,Pure_Forward.csv,READVersionB.csv,"Read Pure F B","Read Pure F B",AFFECTION,LOVE,Study2,F,175,87,Test,User,-,,Recall,Recall1,3141,,0,-1,-1,0,0,,1
w10103983,y8r4bh1e3k,Nick_Dissertation_EX2_EP,1,67,2022-01-12T01:53:57+00:00,5.4724590778351,4,Pure_Forward.csv,READVersionB.csv,"Read Pure F B","Read Pure F B",CLUE,GAME,Study2,F,157,69,Test,User,-,,Recall,Recall1,4426,,0,-1,-1,0,0,,1
w10103983,y8r4bh1e3k,Nick_Dissertation_EX2_EP,1,68,2022-01-12T01:53:58+00:00,1.5917479991913,4,Pure_Forward.csv,READVersionB.csv,"Read Pure F B","Read Pure F B",ROOT,PLANT,Study1,F,13,23,Test,User,-,,Recall,Recall1,1297,,0,-1,-1,0,0,,1
w10103983,y8r4bh1e3k,Nick_Dissertation_EX2_EP,1,69,2022-01-12T01:54:00+00:00,1.2904939651489,4,Pure_Forward.csv,READVersionB.csv,"Read Pure F B","Read Pure F B",SEIZE,TAKE,Study2,F,99,82,Test,User,-,,Recall,Recall1,938,,0,-1,-1,0,0,,1
w10103983,y8r4bh1e3k,Nick_Dissertation_EX2_EP,1,70,2022-01-12T01:54:02+00:00,2.3091831207275,4,Pure_Forward.csv,READVersionB.csv,"Read Pure F B","Read Pure F B",DETECTIVE,MYSTERY,Study2,F,160,76,Test,User,-,,Recall,Recall1,1953,,0,-1,-1,0,0,,1
w10103983,y8r4bh1e3k,Nick_Dissertation_EX2_EP,1,71,2022-01-12T01:54:07+00:00,5.0096077919006,4,Pure_Forward.csv,READVersionB.csv,"Read Pure F B","Read Pure F B",ATTORNEY,LAW,Study2,F,104,75,Test,User,-,,Recall,Recall1,4563,law,100,1851,2623,1,1,,1
w10103983,y8r4bh1e3k,Nick_Dissertation_EX2_EP,1,72,2022-01-12T01:54:12+00:00,4.986563205719,4,Pure_Forward.csv,READVersionB.csv,"Read Pure F B","Read Pure F B",CHERRY,RED,Study2,F,164,60,Test,User,-,,Recall,Recall1,4390,red,100,2989,3555,1,1,,1
w10103983,y8r4bh1e3k,Nick_Dissertation_EX2_EP,1,73,2022-01-12T01:54:22+00:00,9.6873178482056,4,Pure_Forward.csv,READVersionB.csv,"Read Pure F B","Read Pure F B",ADJOURN,END,Study2,F,161,65,Test,User,-,,Recall,Recall1,9191,fear,28.571428571429,3544,8185,0,0,,1
w10103983,y8r4bh1e3k,Nick_Dissertation_EX2_EP,1,74,2022-01-12T01:54:25+00:00,3.362841129303,4,Pure_Forward.csv,READVersionB.csv,"Read Pure F B","Read Pure F B",GROWTH,HEIGHT,Study2,F,100,91,Test,User,-,,Recall,Recall1,3078,,0,-1,-1,0,0,,1
w10103983,y8r4bh1e3k,Nick_Dissertation_EX2_EP,1,75,2022-01-12T01:54:30+00:00,4.9845278263092,4,Pure_Forward.csv,READVersionB.csv,"Read Pure F B","Read Pure F B",DINE,EAT,Study2,F,171,84,Test,User,-,,Recall,Recall1,4472,eat,100,2432,3510,1,1,,1
w10103983,y8r4bh1e3k,Nick_Dissertation_EX2_EP,1,76,2022-01-12T01:54:34+00:00,3.7005391120911,4,Pure_Forward.csv,READVersionB.csv,"Read Pure F B","Read Pure F B",SIP,DRINK,Study2,F,97,73,Test,User,-,,Recall,Recall1,2095,,0,-1,-1,0,0,,1
w10103983,y8r4bh1e3k,Nick_Dissertation_EX2_EP,1,77,2022-01-12T01:54:40+00:00,6.0668110847473,4,Pure_Forward.csv,READVersionB.csv,"Read Pure F B","Read Pure F B",LITTER,TRASH,Study2,F,163,66,Test,User,-,,Recall,Recall1,5606,cat,25,3372,4528,0,0,,1
w10103983,y8r4bh1e3k,Nick_Dissertation_EX2_EP,1,78,2022-01-12T01:54:46+00:00,6.6516919136047,4,Pure_Forward.csv,READVersionB.csv,"Read Pure F B","Read Pure F B",PILOT,PLANE,Study2,F,114,79,Test,User,-,,Recall,Recall1,6135,plane,100,3796,5234,1,1,,1
w10103983,y8r4bh1e3k,Nick_Dissertation_EX2_EP,1,79,2022-01-12T01:54:50+00:00,3.2454640865326,4,Pure_Forward.csv,READVersionB.csv,"Read Pure F B","Read Pure F B",CACTUS,PLANT,Study2,F,158,86,Test,User,-,,Recall,Recall1,2901,,0,-1,-1,0,0,,1
w10103983,y8r4bh1e3k,Nick_Dissertation_EX2_EP,1,80,2022-01-12T01:54:52+00:00,1.7807807922363,4,Pure_Forward.csv,READVersionB.csv,"Read Pure F B","Read Pure F B",INCENSE,SMELL,Study2,F,170,81,Test,User,-,,Recall,Recall1,1367,,0,-1,-1,0,0,,1
w10103983,y8r4bh1e3k,Nick_Dissertation_EX2_EP,1,81,2022-01-12T01:54:56+00:00,4.4066171646118,4,Pure_Forward.csv,READVersionB.csv,"Read Pure F B","Read Pure F B",SCALP,HEAD,Study2,F,165,93,Test,User,-,,Recall,Recall1,3739,head,100,1863,2630,1,1,,1
w10103983,y8r4bh1e3k,Nick_Dissertation_EX2_EP,1,82,2022-01-12T01:55:02+00:00,5.9468328952789,4,Pure_Forward.csv,READVersionB.csv,"Read Pure F B","Read Pure F B",SHOELACE,TIE,Study2,F,159,94,Test,User,-,,Recall,Recall1,5414,tie,100,3546,4544,1,1,,1
w10103983,y8r4bh1e3k,Nick_Dissertation_EX2_EP,1,83,2022-01-12T01:55:06+00:00,3.675192117691,4,Pure_Forward.csv,READVersionB.csv,"Read Pure F B","Read Pure F B",WASP,BUG,Study2,F,102,57,Test,User,-,,Recall,Recall1,3357,bug,100,1899,2468,1,1,,1
w10103983,y8r4bh1e3k,Nick_Dissertation_EX2_EP,1,84,2022-01-12T01:55:07+00:00,1.8664009571075,4,Pure_Forward.csv,READVersionB.csv,"Read Pure F B","Read Pure F B",LATCH,KEY,Study2,F,106,63,Test,User,-,,Recall,Recall1,1525,,0,-1,-1,0,0,,1
w10103983,y8r4bh1e3k,Nick_Dissertation_EX2_EP,1,85,2022-01-12T01:55:13+00:00,5.2418050765991,4,Pure_Forward.csv,READVersionB.csv,"Read Pure F B","Read Pure F B",CHOP,CUT,Study2,F,167,61,Test,User,-,,Recall,Recall1,4643,stick,25,2246,3491,0,0,,1
w10103983,y8r4bh1e3k,Nick_Dissertation_EX2_EP,1,86,2022-01-12T01:55:15+00:00,2.397567987442,4,Pure_Forward.csv,READVersionB.csv,"Read Pure F B","Read Pure F B",ENOUGH,FULL,Study2,F,96,95,Test,User,-,,Recall,Recall1,2088,,0,-1,-1,0,0,,1
w10103983,y8r4bh1e3k,Nick_Dissertation_EX2_EP,1,87,2022-01-12T01:55:17+00:00,2.1850700378418,4,Pure_Forward.csv,READVersionB.csv,"Read Pure F B","Read Pure F B",FANTASTIC,GREAT,Study2,F,105,90,Test,User,-,,Recall,Recall1,1484,,0,-1,-1,0,0,,1
w10103983,y8r4bh1e3k,Nick_Dissertation_EX2_EP,1,88,2022-01-12T01:55:22+00:00,5.0750749111176,4,Pure_Forward.csv,READVersionB.csv,"Read Pure F B","Read Pure F B",DRIVER,CAR,Study2,F,166,77,Test,User,-,,Recall,Recall1,4536,car,100,2820,3414,1,1,,1
w10103983,y8r4bh1e3k,Nick_Dissertation_EX2_EP,1,89,2022-01-12T01:55:24+00:00,1.6535110473633,4,Pure_Forward.csv,READVersionB.csv,"Read Pure F B","Read Pure F B",DROWSY,SLEEP,Study2,F,111,71,Test,User,-,,Recall,Recall1,1375,,0,-1,-1,0,0,,1
w10103983,y8r4bh1e3k,Nick_Dissertation_EX2_EP,1,90,2022-01-12T01:55:25+00:00,1.295933008194,4,Pure_Forward.csv,READVersionB.csv,"Read Pure F B","Read Pure F B",BLAZE,FIRE,Study2,F,115,92,Test,User,-,,Recall,Recall1,987,,0,-1,-1,0,0,,1
w10103983,y8r4bh1e3k,Nick_Dissertation_EX2_EP,1,91,2022-01-12T01:55:26+00:00,1.0296158790588,4,Pure_Forward.csv,READVersionB.csv,"Read Pure F B","Read Pure F B",DIVISION,MATH,Study2,F,103,59,Test,User,-,,Recall,Recall1,769,,0,-1,-1,0,0,,1
w10103983,y8r4bh1e3k,Nick_Dissertation_EX2_EP,1,92,2022-01-12T01:55:29+00:00,3.0253889560699,4,Pure_Forward.csv,READVersionB.csv,"Read Pure F B","Read Pure F B",CHILI,HOT,Study2,F,107,85,Test,User,-,,Recall,Recall1,2665,,0,-1,-1,0,0,,1
w10103983,y8r4bh1e3k,Nick_Dissertation_EX2_EP,1,93,2022-01-12T01:55:32+00:00,2.7885019779205,4,Pure_Forward.csv,READVersionB.csv,"Read Pure F B","Read Pure F B",WORD,SENTENCE,Study2,F,101,67,Test,User,-,,Recall,Recall1,2537,,0,-1,-1,0,0,,1
w10103983,y8r4bh1e3k,Nick_Dissertation_EX2_EP,1,94,2022-01-12T01:55:36+00:00,3.9723930358887,4,Pure_Forward.csv,READVersionB.csv,"Read Pure F B","Read Pure F B",DIVISION,MATH,Study2,F,103,59,Test,User,-,,Recall,Recall1,3675,math,100,1956,2688,1,1,,1
w10103983,y8r4bh1e3k,Nick_Dissertation_EX2_EP,1,95,2022-01-12T01:55:52+00:00,16.242793083191,4,Pure_Forward.csv,READVersionB.csv,"Read Pure F B","Read Pure F B",,,,,,0,Instruct,-,10,"You will now be presented with a new set of word pairs. Please study each pair. Remember that your memory will be tested! Each pair will be displayed on the computer screen and will automatically advance to the next pair. Press ENTER when you are ready to begin.",Initial_Instruct,Instruct4,13450,,,-1,-1,,,,1
w10103983,y8r4bh1e3k,Nick_Dissertation_EX2_EP,1,96,2022-01-12T01:56:01+00:00,8.5418980121613,4,Pure_Forward.csv,READVersionB.csv,"Read Pure F B","Read Pure F B",TREES,GREEN,BUFFER1,Buffer,1,4,STUDY,8,8,,Study/JOL,BUFFER3,8002,,,-1,-1,,,,1
w10103983,y8r4bh1e3k,Nick_Dissertation_EX2_EP,1,97,2022-01-12T01:56:10+00:00,9.2688519954681,4,Pure_Forward.csv,READVersionB.csv,"Read Pure F B","Read Pure F B",SPACE,JAM,BUFFER1,Buffer,5,3,STUDY,8,8,,Study/JOL,BUFFER3,8752,,,-1,-1,,,,0.871
w10103983,y8r4bh1e3k,Nick_Dissertation_EX2_EP,1,98,2022-01-12T01:56:21+00:00,10.390997886658,4,Pure_Forward.csv,READVersionB.csv,"Read Pure F B","Read Pure F B",SCARE,HIDE,BUFFER1,Buffer,4,2,STUDY,8,8,,Study/JOL,BUFFER3,8634,,,-1,-1,,,,0.125
w10103983,y8r4bh1e3k,Nick_Dissertation_EX2_EP,1,99,2022-01-12T01:56:29+00:00,8.4847681522369,4,Pure_Forward.csv,READVersionB.csv,"Read Pure F B","Read Pure F B",BASEBALL,CATCHER,BUFFER1,Buffer,2,5,STUDY,8,8,,Study/JOL,BUFFER3,8002,,,-1,-1,,,,1
w10103983,y8r4bh1e3k,Nick_Dissertation_EX2_EP,1,100,2022-01-12T01:56:38+00:00,8.7114839553833,4,Pure_Forward.csv,READVersionB.csv,"Read Pure F B","Read Pure F B",PEANUT,BUTTER,BUFFER1,Buffer,3,6,STUDY,8,8,,Study/JOL,BUFFER3,8001,,,-1,-1,,,,1
w10103983,y8r4bh1e3k,Nick_Dissertation_EX2_EP,1,101,2022-01-12T01:56:46+00:00,8.4842898845673,4,Pure_Forward.csv,READVersionB.csv,"Read Pure F B","Read Pure F B",WINDSHIELD,CAR,Study1,F,67,26,STUDY,8,8,,Study/JOL,"Study Phase2",8001,,,-1,-1,,,,1
w10103983,y8r4bh1e3k,Nick_Dissertation_EX2_EP,1,102,2022-01-12T01:56:55+00:00,8.6005620956421,4,Pure_Forward.csv,READVersionB.csv,"Read Pure F B","Read Pure F B",BALLOON,POP,Study1,F,73,44,STUDY,8,8,,Study/JOL,"Study Phase2",8002,,,-1,-1,,,,1
w10103983,y8r4bh1e3k,Nick_Dissertation_EX2_EP,1,103,2022-01-12T01:57:04+00:00,8.8815240859985,4,Pure_Forward.csv,READVersionB.csv,"Read Pure F B","Read Pure F B",PENGUIN,BIRD,Study1,F,69,46,STUDY,8,8,,Study/JOL,"Study Phase2",8002,,,-1,-1,,,,1
w10103983,y8r4bh1e3k,Nick_Dissertation_EX2_EP,1,104,2022-01-12T01:57:12+00:00,8.5824799537659,4,Pure_Forward.csv,READVersionB.csv,"Read Pure F B","Read Pure F B",ACTRESS,STAR,Study1,F,70,33,STUDY,8,8,,Study/JOL,"Study Phase2",8001,,,-1,-1,,,,1
w10103983,y8r4bh1e3k,Nick_Dissertation_EX2_EP,1,105,2022-01-12T01:57:21+00:00,8.4773368835449,4,Pure_Forward.csv,READVersionB.csv,"Read Pure F B","Read Pure F B",THIMBLE,THREAD,Study1,F,71,8,STUDY,8,8,,Study/JOL,"Study Phase2",8002,,,-1,-1,,,,1
w10103983,y8r4bh1e3k,Nick_Dissertation_EX2_EP,1,106,2022-01-12T01:57:29+00:00,8.5217161178589,4,Pure_Forward.csv,READVersionB.csv,"Read Pure F B","Read Pure F B",BRAWL,FIGHT,Study1,F,85,19,STUDY,8,8,,Study/JOL,"Study Phase2",8001,,,-1,-1,,,,1
w10103983,y8r4bh1e3k,Nick_Dissertation_EX2_EP,1,107,2022-01-12T01:57:38+00:00,8.4516079425812,4,Pure_Forward.csv,READVersionB.csv,"Read Pure F B","Read Pure F B",BREAKABLE,GLASS,Study1,F,77,18,STUDY,8,8,,Study/JOL,"Study Phase2",8002,,,-1,-1,,,,1
w10103983,y8r4bh1e3k,Nick_Dissertation_EX2_EP,1,108,2022-01-12T01:57:46+00:00,8.4508600234985,4,Pure_Forward.csv,READVersionB.csv,"Read Pure F B","Read Pure F B",CREDIT,CARD,Study1,F,23,34,STUDY,8,8,,Study/JOL,"Study Phase2",8002,,,-1,-1,,,,1
w10103983,y8r4bh1e3k,Nick_Dissertation_EX2_EP,1,109,2022-01-12T01:57:55+00:00,8.4533090591431,4,Pure_Forward.csv,READVersionB.csv,"Read Pure F B","Read Pure F B",DIGESTION,STOMACH,Study1,F,7,24,STUDY,8,8,,Study/JOL,"Study Phase2",8001,,,-1,-1,,,,1
w10103983,y8r4bh1e3k,Nick_Dissertation_EX2_EP,1,110,2022-01-12T01:58:03+00:00,8.4728820323944,4,Pure_Forward.csv,READVersionB.csv,"Read Pure F B","Read Pure F B",BANKER,MONEY,Study1,F,82,30,STUDY,8,8,,Study/JOL,"Study Phase2",8002,,,-1,-1,,,,1
w10103983,y8r4bh1e3k,Nick_Dissertation_EX2_EP,1,111,2022-01-12T01:58:12+00:00,8.5509037971497,4,Pure_Forward.csv,READVersionB.csv,"Read Pure F B","Read Pure F B",REVENGE,EVEN,Study1,F,72,43,STUDY,8,8,,Study/JOL,"Study Phase2",8002,,,-1,-1,,,,1
w10103983,y8r4bh1e3k,Nick_Dissertation_EX2_EP,1,112,2022-01-12T01:58:20+00:00,8.5127320289612,4,Pure_Forward.csv,READVersionB.csv,"Read Pure F B","Read Pure F B",VILLAIN,BAD,Study1,F,68,42,STUDY,8,8,,Study/JOL,"Study Phase2",8002,,,-1,-1,,,,1
w10103983,y8r4bh1e3k,Nick_Dissertation_EX2_EP,1,113,2022-01-12T01:58:29+00:00,9.0894770622253,4,Pure_Forward.csv,READVersionB.csv,"Read Pure F B","Read Pure F B",HERD,COW,Study1,F,22,15,STUDY,8,8,,Study/JOL,"Study Phase2",8002,,,-1,-1,,,,1
w10103983,y8r4bh1e3k,Nick_Dissertation_EX2_EP,1,114,2022-01-12T01:58:38+00:00,8.5127320289612,4,Pure_Forward.csv,READVersionB.csv,"Read Pure F B","Read Pure F B",ORCHID,FLOWER,Study1,F,24,16,STUDY,8,8,,Study/JOL,"Study Phase2",8001,,,-1,-1,,,,1
w10103983,y8r4bh1e3k,Nick_Dissertation_EX2_EP,1,115,2022-01-12T01:58:46+00:00,8.5075240135193,4,Pure_Forward.csv,READVersionB.csv,"Read Pure F B","Read Pure F B",COFFIN,DEAD,Study1,F,78,39,STUDY,8,8,,Study/JOL,"Study Phase2",8002,,,-1,-1,,,,1
w10103983,y8r4bh1e3k,Nick_Dissertation_EX2_EP,1,116,2022-01-12T01:58:55+00:00,8.4914109706879,4,Pure_Forward.csv,READVersionB.csv,"Read Pure F B","Read Pure F B",FLIP,TURN,Study1,F,66,31,STUDY,8,8,,Study/JOL,"Study Phase2",8001,,,-1,-1,,,,1
w10103983,y8r4bh1e3k,Nick_Dissertation_EX2_EP,1,117,2022-01-12T01:59:07+00:00,11.773997068405,4,Pure_Forward.csv,READVersionB.csv,"Read Pure F B","Read Pure F B",HORNET,STING,Study1,F,11,9,STUDY,8,8,,Study/JOL,"Study Phase2",8001,,,-1,-1,,,,1
w10103983,y8r4bh1e3k,Nick_Dissertation_EX2_EP,1,118,2022-01-12T01:59:15+00:00,8.4760580062866,4,Pure_Forward.csv,READVersionB.csv,"Read Pure F B","Read Pure F B",WAGE,MONEY,Study1,F,8,40,STUDY,8,8,,Study/JOL,"Study Phase2",8001,,,-1,-1,,,,1
w10103983,y8r4bh1e3k,Nick_Dissertation_EX2_EP,1,119,2022-01-12T01:59:24+00:00,8.5204980373383,4,Pure_Forward.csv,READVersionB.csv,"Read Pure F B","Read Pure F B",HYGIENE,CLEAN,Study1,F,17,38,STUDY,8,8,,Study/JOL,"Study Phase2",8002,,,-1,-1,,,,1
w10103983,y8r4bh1e3k,Nick_Dissertation_EX2_EP,1,120,2022-01-12T01:59:32+00:00,8.6005489826202,4,Pure_Forward.csv,READVersionB.csv,"Read Pure F B","Read Pure F B",NAP,SLEEP,Study1,F,84,14,STUDY,8,8,,Study/JOL,"Study Phase2",8002,,,-1,-1,,,,1
w10103983,y8r4bh1e3k,Nick_Dissertation_EX2_EP,1,121,2022-01-12T01:59:41+00:00,8.4541699886322,4,Pure_Forward.csv,READVersionB.csv,"Read Pure F B","Read Pure F B",REVOLUTION,WAR,Study1,F,20,13,STUDY,8,8,,Study/JOL,"Study Phase2",8001,,,-1,-1,,,,1
w10103983,y8r4bh1e3k,Nick_Dissertation_EX2_EP,1,122,2022-01-12T01:59:49+00:00,8.4802768230438,4,Pure_Forward.csv,READVersionB.csv,"Read Pure F B","Read Pure F B",BITTER,COLD,Study1,F,12,21,STUDY,8,8,,Study/JOL,"Study Phase2",8002,,,-1,-1,,,,1
w10103983,y8r4bh1e3k,Nick_Dissertation_EX2_EP,1,123,2022-01-12T01:59:58+00:00,8.7907121181488,4,Pure_Forward.csv,READVersionB.csv,"Read Pure F B","Read Pure F B",DISCUSSION,TALK,Study1,F,21,28,STUDY,8,8,,Study/JOL,"Study Phase2",8002,,,-1,-1,,,,1
w10103983,y8r4bh1e3k,Nick_Dissertation_EX2_EP,1,124,2022-01-12T02:00:06+00:00,8.5111820697784,4,Pure_Forward.csv,READVersionB.csv,"Read Pure F B","Read Pure F B",TRUTHFUL,HONEST,Study1,F,83,25,STUDY,8,8,,Study/JOL,"Study Phase2",8002,,,-1,-1,,,,1
w10103983,y8r4bh1e3k,Nick_Dissertation_EX2_EP,1,125,2022-01-12T02:00:15+00:00,8.5212647914886,4,Pure_Forward.csv,READVersionB.csv,"Read Pure F B","Read Pure F B",FAVORITE,BEST,Study1,F,75,36,STUDY,8,8,,Study/JOL,"Study Phase2",8001,,,-1,-1,,,,1
w10103983,y8r4bh1e3k,Nick_Dissertation_EX2_EP,1,126,2022-01-12T02:00:23+00:00,8.5536901950836,4,Pure_Forward.csv,READVersionB.csv,"Read Pure F B","Read Pure F B",AIRCRAFT,PLANE,Study1,F,79,12,STUDY,8,8,,Study/JOL,"Study Phase2",8001,,,-1,-1,,,,1
w10103983,y8r4bh1e3k,Nick_Dissertation_EX2_EP,1,127,2022-01-12T02:00:32+00:00,8.6451528072357,4,Pure_Forward.csv,READVersionB.csv,"Read Pure F B","Read Pure F B",PANTHER,CAT,Study1,F,76,20,STUDY,8,8,,Study/JOL,"Study Phase2",8001,,,-1,-1,,,,1
w10103983,y8r4bh1e3k,Nick_Dissertation_EX2_EP,1,128,2022-01-12T02:00:41+00:00,8.5073170661926,4,Pure_Forward.csv,READVersionB.csv,"Read Pure F B","Read Pure F B",WAY,OUT,Study1,F,16,37,STUDY,8,8,,Study/JOL,"Study Phase2",8002,,,-1,-1,,,,1
w10103983,y8r4bh1e3k,Nick_Dissertation_EX2_EP,1,129,2022-01-12T02:00:49+00:00,8.508945941925,4,Pure_Forward.csv,READVersionB.csv,"Read Pure F B","Read Pure F B",GEOLOGY,ROCK,Study1,F,19,29,STUDY,8,8,,Study/JOL,"Study Phase2",8001,,,-1,-1,,,,1
w10103983,y8r4bh1e3k,Nick_Dissertation_EX2_EP,1,130,2022-01-12T02:00:58+00:00,8.4540500640869,4,Pure_Forward.csv,READVersionB.csv,"Read Pure F B","Read Pure F B",CHISEL,HAMMER,Study1,F,9,41,STUDY,8,8,,Study/JOL,"Study Phase2",8001,,,-1,-1,,,,1
w10103983,y8r4bh1e3k,Nick_Dissertation_EX2_EP,1,131,2022-01-12T02:01:06+00:00,8.4883689880371,4,Pure_Forward.csv,READVersionB.csv,"Read Pure F B","Read Pure F B",STRAWBERRY,FRUIT,Study1,F,74,32,STUDY,8,8,,Study/JOL,"Study Phase2",8001,,,-1,-1,,,,1
w10103983,y8r4bh1e3k,Nick_Dissertation_EX2_EP,1,132,2022-01-12T02:01:15+00:00,8.5572869777679,4,Pure_Forward.csv,READVersionB.csv,"Read Pure F B","Read Pure F B",LEAGUE,BASEBALL,Study1,F,81,22,STUDY,8,8,,Study/JOL,"Study Phase2",8002,,,-1,-1,,,,1
w10103983,y8r4bh1e3k,Nick_Dissertation_EX2_EP,1,133,2022-01-12T02:01:23+00:00,8.7663741111755,4,Pure_Forward.csv,READVersionB.csv,"Read Pure F B","Read Pure F B",BRIDGE,WATER,Study1,F,18,27,STUDY,8,8,,Study/JOL,"Study Phase2",8000,,,-1,-1,,,,1
w10103983,y8r4bh1e3k,Nick_Dissertation_EX2_EP,1,134,2022-01-12T02:01:32+00:00,8.9651200771332,4,Pure_Forward.csv,READVersionB.csv,"Read Pure F B","Read Pure F B",SWAN,BIRD,Study1,F,14,10,STUDY,8,8,,Study/JOL,"Study Phase2",8002,,,-1,-1,,,,1
w10103983,y8r4bh1e3k,Nick_Dissertation_EX2_EP,1,135,2022-01-12T02:01:41+00:00,8.8776869773865,4,Pure_Forward.csv,READVersionB.csv,"Read Pure F B","Read Pure F B",ROOT,PLANT,Study1,F,13,23,STUDY,8,8,,Study/JOL,"Study Phase2",8002,,,-1,-1,,,,1
w10103983,y8r4bh1e3k,Nick_Dissertation_EX2_EP,1,136,2022-01-12T02:01:50+00:00,8.5039708614349,4,Pure_Forward.csv,READVersionB.csv,"Read Pure F B","Read Pure F B",PAW,DOG,Study1,F,15,45,STUDY,8,8,,Study/JOL,"Study Phase2",8001,,,-1,-1,,,,1
w10103983,y8r4bh1e3k,Nick_Dissertation_EX2_EP,1,137,2022-01-12T02:01:58+00:00,8.522243976593,4,Pure_Forward.csv,READVersionB.csv,"Read Pure F B","Read Pure F B",TUNA,FISH,Study1,F,25,7,STUDY,8,8,,Study/JOL,"Study Phase2",8001,,,-1,-1,,,,1
w10103983,y8r4bh1e3k,Nick_Dissertation_EX2_EP,1,138,2022-01-12T02:02:07+00:00,8.5464160442352,4,Pure_Forward.csv,READVersionB.csv,"Read Pure F B","Read Pure F B",SARDINE,FISH,Study1,F,80,17,STUDY,8,8,,Study/JOL,"Study Phase2",8001,,,-1,-1,,,,1
w10103983,y8r4bh1e3k,Nick_Dissertation_EX2_EP,1,139,2022-01-12T02:02:15+00:00,8.6784269809723,4,Pure_Forward.csv,READVersionB.csv,"Read Pure F B","Read Pure F B",DELINQUENT,BAD,Study1,F,6,11,STUDY,8,8,,Study/JOL,"Study Phase2",8001,,,-1,-1,,,,1
w10103983,y8r4bh1e3k,Nick_Dissertation_EX2_EP,1,140,2022-01-12T02:02:24+00:00,8.5565760135651,4,Pure_Forward.csv,READVersionB.csv,"Read Pure F B","Read Pure F B",EDITOR,NEWS,Study1,F,10,35,STUDY,8,8,,Study/JOL,"Study Phase2",8001,,,-1,-1,,,,1
w10103983,y8r4bh1e3k,Nick_Dissertation_EX2_EP,1,141,2022-01-12T02:02:33+00:00,8.5171411037445,4,Pure_Forward.csv,READVersionB.csv,"Read Pure F B","Read Pure F B",MOON,SPACE,BUFFER2,Buffer,89,49,STUDY,8,8,,Study/JOL,BUFFER4,8001,,,-1,-1,,,,1
w10103983,y8r4bh1e3k,Nick_Dissertation_EX2_EP,1,142,2022-01-12T02:02:41+00:00,8.5987648963928,4,Pure_Forward.csv,READVersionB.csv,"Read Pure F B","Read Pure F B",GEESE,GOOSE,BUFFER2,Buffer,86,51,STUDY,8,8,,Study/JOL,BUFFER4,8002,,,-1,-1,,,,1
w10103983,y8r4bh1e3k,Nick_Dissertation_EX2_EP,1,143,2022-01-12T02:02:50+00:00,8.5394830703735,4,Pure_Forward.csv,READVersionB.csv,"Read Pure F B","Read Pure F B",MALT,CHOCOLATE,BUFFER2,Buffer,88,50,STUDY,8,8,,Study/JOL,BUFFER4,8002,,,-1,-1,,,,1
w10103983,y8r4bh1e3k,Nick_Dissertation_EX2_EP,1,144,2022-01-12T02:02:59+00:00,9.0221199989319,4,Pure_Forward.csv,READVersionB.csv,"Read Pure F B","Read Pure F B",THING,STUFF,BUFFER2,Buffer,90,48,STUDY,8,8,,Study/JOL,BUFFER4,8001,,,-1,-1,,,,1
w10103983,y8r4bh1e3k,Nick_Dissertation_EX2_EP,1,145,2022-01-12T02:03:07+00:00,8.6544179916382,4,Pure_Forward.csv,READVersionB.csv,"Read Pure F B","Read Pure F B",SHERRIF,POLICE,BUFFER2,Buffer,87,47,STUDY,8,8,,Study/JOL,BUFFER4,8000,,,-1,-1,,,,1
w10103983,y8r4bh1e3k,Nick_Dissertation_EX2_EP,1,146,2022-01-12T02:03:11+00:00,3.7227339744568,4,Pure_Forward.csv,READVersionB.csv,"Read Pure F B","Read Pure F B",,,,,,0,Instruct,User,-,"You have completed this section. Please press Enter.",Filler_Instruction,Instruct5,3138,,,-1,-1,,,,1
w10103983,y8r4bh1e3k,Nick_Dissertation_EX2_EP,1,147,2022-01-12T02:05:12+00:00,121.25327110291,4,Pure_Forward.csv,READVersionB.csv,"Read Pure F B","Read Pure F B",,,,,,0,FreeRecall,120,120,"Please list the 50 US states in reverse alphabetical order (z - a). The task will automatically advance to the next screen after two minutes.",,Filler2,120000," ADVERTISEMENTS Please click on the state you are interested in to view that state's information: Alabama Alaska Arizona Arkansas California Colorado Connecticut Delaware Florida Georgia Hawaii Idaho Illinois Indiana Iowa Kansas Kentucky Louisiana Maine Maryland Massachusetts Michigan Minnesota Mississippi Missouri Montana Nebraska Nevada New Hampshire New Jersey New Mexico New York North Carolina North Dakota Ohio Oklahoma Oregon Pennsylvania Rhode Island South Carolina South Dakota Tennessee wyoming Wisconsin West Virginia Washington Virginia Vermont Utah Texas Tennessee South Dakota South Carolina",0,4539,119344,0,0,,1
w10103983,y8r4bh1e3k,Nick_Dissertation_EX2_EP,1,148,2022-01-12T02:05:24+00:00,11.322188854218,4,Pure_Forward.csv,READVersionB.csv,"Read Pure F B","Read Pure F B",,,,,,0,Instruct,-,10,"You will now be presented with the first word from each of the previously studied item pairs. Please type the missing word. If you do not know the word, you may guess or press Enter to skip forward to the next pair.",,Instruct6,10344,,,-1,-1,,,,1
w10103983,y8r4bh1e3k,Nick_Dissertation_EX2_EP,1,149,2022-01-12T02:05:35+00:00,11.365482091904,4,Pure_Forward.csv,READVersionB.csv,"Read Pure F B","Read Pure F B",CHISEL,HAMMER,Study1,F,9,41,Test,User,-,,Recall,Recall2,8361,wood,0,3069,4760,0,0,,1
w10103983,y8r4bh1e3k,Nick_Dissertation_EX2_EP,1,150,2022-01-12T02:05:42+00:00,6.4907250404358,4,Pure_Forward.csv,READVersionB.csv,"Read Pure F B","Read Pure F B",CREDIT,CARD,Study1,F,23,34,Test,User,-,,Recall,Recall2,4162,card,100,1441,2625,1,1,,1
w10103983,y8r4bh1e3k,Nick_Dissertation_EX2_EP,1,151,2022-01-12T02:05:47+00:00,5.585953950882,4,Pure_Forward.csv,READVersionB.csv,"Read Pure F B","Read Pure F B",ORCHID,FLOWER,Study1,F,24,16,Test,User,-,,Recall,Recall2,4427,tree,20,2119,3050,0,0,,1
w10103983,y8r4bh1e3k,Nick_Dissertation_EX2_EP,1,152,2022-01-12T02:05:55+00:00,7.5556230545044,4,Pure_Forward.csv,READVersionB.csv,"Read Pure F B","Read Pure F B",VILLAIN,BAD,Study1,F,68,42,Test,User,-,,Recall,Recall2,6922,,0,-1,-1,0,0,,1
w10103983,y8r4bh1e3k,Nick_Dissertation_EX2_EP,1,153,2022-01-12T02:06:01+00:00,6.6179578304291,4,Pure_Forward.csv,READVersionB.csv,"Read Pure F B","Read Pure F B",DIGESTION,STOMACH,Study1,F,7,24,Test,User,-,,Recall,Recall2,5380,food,18.181818181818,3422,4876,0,0,,1
w10103983,y8r4bh1e3k,Nick_Dissertation_EX2_EP,1,154,2022-01-12T02:06:07+00:00,6.1116850376129,4,Pure_Forward.csv,READVersionB.csv,"Read Pure F B","Read Pure F B",SWAN,BIRD,Study1,F,14,10,Test,User,-,,Recall,Recall2,4836,bird,100,2599,3804,1,1,,1
w10103983,y8r4bh1e3k,Nick_Dissertation_EX2_EP,1,155,2022-01-12T02:06:23+00:00,16.000595092773,4,Pure_Forward.csv,READVersionB.csv,"Read Pure F B","Read Pure F B",BALLOON,POP,Study1,F,73,44,Test,User,-,,Recall,Recall2,12402,air,0,8641,9612,0,0,,0.884
w10103983,y8r4bh1e3k,Nick_Dissertation_EX2_EP,1,156,2022-01-12T02:06:34+00:00,11.109024047852,4,Pure_Forward.csv,READVersionB.csv,"Read Pure F B","Read Pure F B",WAGE,MONEY,Study1,F,8,40,Test,User,-,,Recall,Recall2,9465,money,100,4682,6296,1,1,,0.811
w10103983,y8r4bh1e3k,Nick_Dissertation_EX2_EP,1,157,2022-01-12T02:06:58+00:00,23.815737009048,4,Pure_Forward.csv,READVersionB.csv,"Read Pure F B","Read Pure F B",THIMBLE,THREAD,Study1,F,71,8,Test,User,-,,Recall,Recall2,21027,shake,36.363636363636,16814,19650,0,0,,0.744
w10103983,y8r4bh1e3k,Nick_Dissertation_EX2_EP,1,158,2022-01-12T02:07:02+00:00,3.5346479415894,4,Pure_Forward.csv,READVersionB.csv,"Read Pure F B","Read Pure F B",BRIDGE,WATER,Study1,F,18,27,Test,User,-,,Recall,Recall2,3070,,0,-1,-1,0,0,,1
w10103983,y8r4bh1e3k,Nick_Dissertation_EX2_EP,1,159,2022-01-12T02:07:09+00:00,6.7620010375977,4,Pure_Forward.csv,READVersionB.csv,"Read Pure F B","Read Pure F B",BREAKABLE,GLASS,Study1,F,77,18,Test,User,-,,Recall,Recall2,5340,glass,100,2277,3749,1,1,,1
w10103983,y8r4bh1e3k,Nick_Dissertation_EX2_EP,1,160,2022-01-12T02:07:18+00:00,9.0231468677521,4,Pure_Forward.csv,READVersionB.csv,"Read Pure F B","Read Pure F B",BANKER,MONEY,Study1,F,82,30,Test,User,-,,Recall,Recall2,4580,teller,18.181818181818,1970,3407,0,0,,1
w10103983,y8r4bh1e3k,Nick_Dissertation_EX2_EP,1,161,2022-01-12T02:07:20+00:00,2.429594039917,4,Pure_Forward.csv,READVersionB.csv,"Read Pure F B","Read Pure F B",REVENGE,EVEN,Study1,F,72,43,Test,User,-,,Recall,Recall2,1940,,0,-1,-1,0,0,,1
w10103983,y8r4bh1e3k,Nick_Dissertation_EX2_EP,1,162,2022-01-12T02:07:22+00:00,1.8864049911499,4,Pure_Forward.csv,READVersionB.csv,"Read Pure F B","Read Pure F B",LEAGUE,BASEBALL,Study1,F,81,22,Test,User,-,,Recall,Recall2,1373,,0,-1,-1,0,0,,1
w10103983,y8r4bh1e3k,Nick_Dissertation_EX2_EP,1,163,2022-01-12T02:07:31+00:00,8.6881699562073,4,Pure_Forward.csv,READVersionB.csv,"Read Pure F B","Read Pure F B",PAW,DOG,Study1,F,15,45,Test,User,-,,Recall,Recall2,7744,dog,100,4120,6611,1,1,,1
w10103983,y8r4bh1e3k,Nick_Dissertation_EX2_EP,1,164,2022-01-12T02:07:35+00:00,3.9711410999298,4,Pure_Forward.csv,READVersionB.csv,"Read Pure F B","Read Pure F B",STRAWBERRY,FRUIT,Study1,F,74,32,Test,User,-,,Recall,Recall2,3614,,0,-1,-1,0,0,,1
w10103983,y8r4bh1e3k,Nick_Dissertation_EX2_EP,1,165,2022-01-12T02:07:44+00:00,9.0076448917389,4,Pure_Forward.csv,READVersionB.csv,"Read Pure F B","Read Pure F B",AIRCRAFT,PLANE,Study1,F,79,12,Test,User,-,,Recall,Recall2,5562,plane,100,1529,3367,1,1,,1
w10103983,y8r4bh1e3k,Nick_Dissertation_EX2_EP,1,166,2022-01-12T02:07:49+00:00,5.0941171646118,4,Pure_Forward.csv,READVersionB.csv,"Read Pure F B","Read Pure F B",NAP,SLEEP,Study1,F,84,14,Test,User,-,,Recall,Recall2,4470,sleep,100,1852,3558,1,1,,1
w10103983,y8r4bh1e3k,Nick_Dissertation_EX2_EP,1,167,2022-01-12T02:07:56+00:00,7.6231019496918,4,Pure_Forward.csv,READVersionB.csv,"Read Pure F B","Read Pure F B",DISCUSSION,TALK,Study1,F,21,28,Test,User,-,,Recall,Recall2,5259,talk,100,2379,3798,1,1,,1
w10103983,y8r4bh1e3k,Nick_Dissertation_EX2_EP,1,168,2022-01-12T02:08:00+00:00,3.7023298740387,4,Pure_Forward.csv,READVersionB.csv,"Read Pure F B","Read Pure F B",COFFIN,DEAD,Study1,F,78,39,Test,User,-,,Recall,Recall2,3249,,0,-1,-1,0,0,,1
w10103983,y8r4bh1e3k,Nick_Dissertation_EX2_EP,1,169,2022-01-12T02:08:02+00:00,1.5354211330414,4,Pure_Forward.csv,READVersionB.csv,"Read Pure F B","Read Pure F B",WINDSHIELD,CAR,Study1,F,67,26,Test,User,-,,Recall,Recall2,1182,,0,-1,-1,0,0,,1
w10103983,y8r4bh1e3k,Nick_Dissertation_EX2_EP,1,170,2022-01-12T02:08:04+00:00,2.3743598461151,4,Pure_Forward.csv,READVersionB.csv,"Read Pure F B","Read Pure F B",HERD,COW,Study1,F,22,15,Test,User,-,,Recall,Recall2,2003,,0,-1,-1,0,0,,1
w10103983,y8r4bh1e3k,Nick_Dissertation_EX2_EP,1,171,2022-01-12T02:08:10+00:00,5.6519310474396,4,Pure_Forward.csv,READVersionB.csv,"Read Pure F B","Read Pure F B",HORNET,STING,Study1,F,11,9,Test,User,-,,Recall,Recall2,4771,bug,25,2243,3276,0,0,,1
w10103983,y8r4bh1e3k,Nick_Dissertation_EX2_EP,1,172,2022-01-12T02:08:15+00:00,5.7813551425934,4,Pure_Forward.csv,READVersionB.csv,"Read Pure F B","Read Pure F B",GEOLOGY,ROCK,Study1,F,19,29,Test,User,-,,Recall,Recall2,5053,rocks,88.888888888889,1897,3836,0,1,,1
w10103983,y8r4bh1e3k,Nick_Dissertation_EX2_EP,1,173,2022-01-12T02:08:21+00:00,5.4151020050049,4,Pure_Forward.csv,READVersionB.csv,"Read Pure F B","Read Pure F B",BRAWL,FIGHT,Study1,F,85,19,Test,User,-,,Recall,Recall2,4132,cry,0,1856,2953,0,0,,1
w10103983,y8r4bh1e3k,Nick_Dissertation_EX2_EP,1,174,2022-01-12T02:08:27+00:00,6.3003988265991,4,Pure_Forward.csv,READVersionB.csv,"Read Pure F B","Read Pure F B",TUNA,FISH,Study1,F,25,7,Test,User,-,,Recall,Recall2,5294,fish,100,2606,4060,1,1,,1
w10103983,y8r4bh1e3k,Nick_Dissertation_EX2_EP,1,175,2022-01-12T02:08:32+00:00,4.6263480186462,4,Pure_Forward.csv,READVersionB.csv,"Read Pure F B","Read Pure F B",TRUTHFUL,HONEST,Study1,F,83,25,Test,User,-,,Recall,Recall2,4036,lie,22.222222222222,1678,2957,0,0,,1
w10103983,y8r4bh1e3k,Nick_Dissertation_EX2_EP,1,176,2022-01-12T02:08:34+00:00,2.7306959629059,4,Pure_Forward.csv,READVersionB.csv,"Read Pure F B","Read Pure F B",SARDINE,FISH,Study1,F,80,17,Test,User,-,,Recall,Recall2,2449,,0,-1,-1,0,0,,1
w10103983,y8r4bh1e3k,Nick_Dissertation_EX2_EP,1,177,2022-01-12T02:08:36+00:00,1.8341870307922,4,Pure_Forward.csv,READVersionB.csv,"Read Pure F B","Read Pure F B",WAY,OUT,Study1,F,16,37,Test,User,-,,Recall,Recall2,1388,,0,-1,-1,0,0,,1
w10103983,y8r4bh1e3k,Nick_Dissertation_EX2_EP,1,178,2022-01-12T02:08:39+00:00,2.9510099887848,4,Pure_Forward.csv,READVersionB.csv,"Read Pure F B","Read Pure F B",ROOT,PLANT,Study1,F,13,23,Test,User,-,,Recall,Recall2,2521,,0,-1,-1,0,0,,1
w10103983,y8r4bh1e3k,Nick_Dissertation_EX2_EP,1,179,2022-01-12T02:08:40+00:00,1.1224210262299,4,Pure_Forward.csv,READVersionB.csv,"Read Pure F B","Read Pure F B",DELINQUENT,BAD,Study1,F,6,11,Test,User,-,,Recall,Recall2,807,,0,-1,-1,0,0,,1
w10103983,y8r4bh1e3k,Nick_Dissertation_EX2_EP,1,180,2022-01-12T02:08:42+00:00,1.6611831188202,4,Pure_Forward.csv,READVersionB.csv,"Read Pure F B","Read Pure F B",BITTER,COLD,Study1,F,12,21,Test,User,-,,Recall,Recall2,825,,0,-1,-1,0,0,,1
w10103983,y8r4bh1e3k,Nick_Dissertation_EX2_EP,1,181,2022-01-12T02:08:43+00:00,1.3100688457489,4,Pure_Forward.csv,READVersionB.csv,"Read Pure F B","Read Pure F B",PENGUIN,BIRD,Study1,F,69,46,Test,User,-,,Recall,Recall2,1031,,0,-1,-1,0,0,,1
w10103983,y8r4bh1e3k,Nick_Dissertation_EX2_EP,1,182,2022-01-12T02:08:44+00:00,1.0588290691376,4,Pure_Forward.csv,READVersionB.csv,"Read Pure F B","Read Pure F B",EDITOR,NEWS,Study1,F,10,35,Test,User,-,,Recall,Recall2,793,,0,-1,-1,0,0,,1
w10103983,y8r4bh1e3k,Nick_Dissertation_EX2_EP,1,183,2022-01-12T02:08:45+00:00,0.80200004577637,4,Pure_Forward.csv,READVersionB.csv,"Read Pure F B","Read Pure F B",PANTHER,CAT,Study1,F,76,20,Test,User,-,,Recall,Recall2,517,,0,-1,-1,0,0,,1
w10103983,y8r4bh1e3k,Nick_Dissertation_EX2_EP,1,184,2022-01-12T02:08:46+00:00,0.94750690460205,4,Pure_Forward.csv,READVersionB.csv,"Read Pure F B","Read Pure F B",REVOLUTION,WAR,Study1,F,20,13,Test,User,-,,Recall,Recall2,628,,0,-1,-1,0,0,,1
w10103983,y8r4bh1e3k,Nick_Dissertation_EX2_EP,1,185,2022-01-12T02:08:48+00:00,1.7938730716705,4,Pure_Forward.csv,READVersionB.csv,"Read Pure F B","Read Pure F B",ACTRESS,STAR,Study1,F,70,33,Test,User,-,,Recall,Recall2,910,,0,-1,-1,0,0,,1
w10103983,y8r4bh1e3k,Nick_Dissertation_EX2_EP,1,186,2022-01-12T02:08:49+00:00,1.1283559799194,4,Pure_Forward.csv,READVersionB.csv,"Read Pure F B","Read Pure F B",FAVORITE,BEST,Study1,F,75,36,Test,User,-,,Recall,Recall2,771,,0,-1,-1,0,0,,1
w10103983,y8r4bh1e3k,Nick_Dissertation_EX2_EP,1,187,2022-01-12T02:08:50+00:00,0.85022711753845,4,Pure_Forward.csv,READVersionB.csv,"Read Pure F B","Read Pure F B",HYGIENE,CLEAN,Study1,F,17,38,Test,User,-,,Recall,Recall2,535,,0,-1,-1,0,0,,1
w10103983,y8r4bh1e3k,Nick_Dissertation_EX2_EP,1,188,2022-01-12T02:08:57+00:00,6.7400939464569,4,Pure_Forward.csv,READVersionB.csv,"Read Pure F B","Read Pure F B",FLIP,TURN,Study1,F,66,31,Test,User,-,,Recall,Recall2,6233,,0,-1,-1,0,0,,1
w10103983,y8r4bh1e3k,Nick_Dissertation_EX2_EP,1,189,2022-01-12T02:08:59+00:00,2.0371618270874,4,Pure_Forward.csv,READVersionB.csv,"Read Pure F B","Read Pure F B",,,,,,0,Instruct,User,-,"You have completed this section. Please press Enter.",,Instruct7,1727,,,-1,-1,,,,1
w10103983,y8r4bh1e3k,Nick_Dissertation_EX2_EP,1,190,2022-01-12T02:09:03+00:00,3.8701710700989,4,Pure_Forward.csv,READVersionB.csv,"Read Pure F B","Read Pure F B",,,,,,0,Instruct,User,-,"The following screen will ask you a few questions abour your experience today. You must complete these questions to receive credit.",,Instruct8,3208,,,-1,-1,,,,1
