Username,ID,ExperimentName,Session,Trial,Date,TimeDif,"Condition Number","Stimuli File","Order File","Condition Description","Condition Notes",Stimuli*Cue,Stimuli*Answer,Stimuli*Shuffle,"Stimuli*Stimuli Notes",Stimuli*Value,Procedure*Item,"Procedure*Trial Type","Procedure*Max Time","Procedure*Min Time",Procedure*Text,"Procedure*Procedure Notes",Procedure*Shuffle,Response*RT,Response*Response,Response*Accuracy,Response*RTfirst,Response*RTlast,Response*strictAcc,Response*lenientAcc,Response*focus,Response*Focus
w10086527,hbnfzfmp5y,Nick_Dissertation_EX2_EP,1,1,2021-09-14T12:42:44-07:00,29.154839038849,2,Mixed_Stim.csv,READVersionB.csv,"Read Mixed B","Read Mixed B",,,,,,0,Instruct,-,10,"Please study each of the following word pairs. Remember that your memory will be tested! Each pair will be displayed on the computer screen and will automatically advance to the next pair. Press ENTER when you are ready to begin.",Initial_Instruct,Instruct1,28748,,,-1,-1,,,,1
w10086527,hbnfzfmp5y,Nick_Dissertation_EX2_EP,1,2,2021-09-14T12:42:52-07:00,8.4956459999084,2,Mixed_Stim.csv,READVersionB.csv,"Read Mixed B","Read Mixed B",NOODLE,STRING,BUFFER3,Buffer,92,54,STUDY,8,8,,Study/JOL,BUFFER,8005,,,-1,-1,,,,1
w10086527,hbnfzfmp5y,Nick_Dissertation_EX2_EP,1,3,2021-09-14T12:43:01-07:00,8.457955121994,2,Mixed_Stim.csv,READVersionB.csv,"Read Mixed B","Read Mixed B",SHRIMP,FISH,BUFFER3,Buffer,93,55,STUDY,8,8,,Study/JOL,BUFFER,8005,,,-1,-1,,,,1
w10086527,hbnfzfmp5y,Nick_Dissertation_EX2_EP,1,4,2021-09-14T12:43:09-07:00,8.4841639995575,2,Mixed_Stim.csv,READVersionB.csv,"Read Mixed B","Read Mixed B",CAMP,ADVENTURE,BUFFER3,Buffer,95,53,STUDY,8,8,,Study/JOL,BUFFER,8004,,,-1,-1,,,,1
w10086527,hbnfzfmp5y,Nick_Dissertation_EX2_EP,1,5,2021-09-14T12:43:18-07:00,8.402058839798,2,Mixed_Stim.csv,READVersionB.csv,"Read Mixed B","Read Mixed B",CARROT,POTATO,BUFFER3,Buffer,91,52,STUDY,8,8,,Study/JOL,BUFFER,8011,,,-1,-1,,,,1
w10086527,hbnfzfmp5y,Nick_Dissertation_EX2_EP,1,6,2021-09-14T12:43:26-07:00,8.4066150188446,2,Mixed_Stim.csv,READVersionB.csv,"Read Mixed B","Read Mixed B",ICE,FROZEN,BUFFER3,Buffer,94,56,STUDY,8,8,,Study/JOL,BUFFER,8006,,,-1,-1,,,,1
w10086527,hbnfzfmp5y,Nick_Dissertation_EX2_EP,1,7,2021-09-14T12:43:34-07:00,8.3863129615784,2,Mixed_Stim.csv,READVersionB.csv,"Read Mixed B","Read Mixed B",BOTH,OUNCE,Study2,U,172,59,STUDY,8,8,,Study/JOL,"Study Phase",8006,,,-1,-1,,,,1
w10086527,hbnfzfmp5y,Nick_Dissertation_EX2_EP,1,8,2021-09-14T12:43:43-07:00,8.3964459896088,2,Mixed_Stim.csv,READVersionB.csv,"Read Mixed B","Read Mixed B",ADJOURN,END,Study2,F,101,67,STUDY,8,8,,Study/JOL,"Study Phase",8004,,,-1,-1,,,,1
w10086527,hbnfzfmp5y,Nick_Dissertation_EX2_EP,1,9,2021-09-14T12:43:51-07:00,8.5086250305176,2,Mixed_Stim.csv,READVersionB.csv,"Read Mixed B","Read Mixed B",SCALP,HEAD,Study2,F,105,72,STUDY,8,8,,Study/JOL,"Study Phase",8009,,,-1,-1,,,,1
w10086527,hbnfzfmp5y,Nick_Dissertation_EX2_EP,1,10,2021-09-14T12:44:00-07:00,8.4484701156616,2,Mixed_Stim.csv,READVersionB.csv,"Read Mixed B","Read Mixed B",MIRROR,CHILDREN,Study2,U,174,60,STUDY,8,8,,Study/JOL,"Study Phase",8007,,,-1,-1,,,,1
w10086527,hbnfzfmp5y,Nick_Dissertation_EX2_EP,1,11,2021-09-14T12:44:08-07:00,8.3867499828339,2,Mixed_Stim.csv,READVersionB.csv,"Read Mixed B","Read Mixed B",MAZE,ELECTION,Study2,U,159,78,STUDY,8,8,,Study/JOL,"Study Phase",8009,,,-1,-1,,,,1
w10086527,hbnfzfmp5y,Nick_Dissertation_EX2_EP,1,12,2021-09-14T12:44:17-07:00,8.5532469749451,2,Mixed_Stim.csv,READVersionB.csv,"Read Mixed B","Read Mixed B",VEHICLE,CHARM,Study2,U,160,61,STUDY,8,8,,Study/JOL,"Study Phase",8007,,,-1,-1,,,,1
w10086527,hbnfzfmp5y,Nick_Dissertation_EX2_EP,1,13,2021-09-14T12:44:25-07:00,8.5041449069977,2,Mixed_Stim.csv,READVersionB.csv,"Read Mixed B","Read Mixed B",CHERRY,RED,Study2,F,104,73,STUDY,8,8,,Study/JOL,"Study Phase",8005,,,-1,-1,,,,1
w10086527,hbnfzfmp5y,Nick_Dissertation_EX2_EP,1,14,2021-09-14T12:44:34-07:00,8.493399143219,2,Mixed_Stim.csv,READVersionB.csv,"Read Mixed B","Read Mixed B",CHOP,CUT,Study2,F,107,80,STUDY,8,8,,Study/JOL,"Study Phase",8004,,,-1,-1,,,,1
w10086527,hbnfzfmp5y,Nick_Dissertation_EX2_EP,1,15,2021-09-14T12:44:42-07:00,8.6001908779144,2,Mixed_Stim.csv,READVersionB.csv,"Read Mixed B","Read Mixed B",FEUD,FIGHT,Study2,F,113,96,STUDY,8,8,,Study/JOL,"Study Phase",8005,,,-1,-1,,,,1
w10086527,hbnfzfmp5y,Nick_Dissertation_EX2_EP,1,16,2021-09-14T12:44:51-07:00,8.3814151287079,2,Mixed_Stim.csv,READVersionB.csv,"Read Mixed B","Read Mixed B",GIVE,STEAK,Study2,U,158,95,STUDY,8,8,,Study/JOL,"Study Phase",8003,,,-1,-1,,,,1
w10086527,hbnfzfmp5y,Nick_Dissertation_EX2_EP,1,17,2021-09-14T12:44:59-07:00,8.4726469516754,2,Mixed_Stim.csv,READVersionB.csv,"Read Mixed B","Read Mixed B",JUSTICE,MAROON,Study2,U,156,69,STUDY,8,8,,Study/JOL,"Study Phase",8010,,,-1,-1,,,,1
w10086527,hbnfzfmp5y,Nick_Dissertation_EX2_EP,1,18,2021-09-14T12:45:07-07:00,8.3551468849182,2,Mixed_Stim.csv,READVersionB.csv,"Read Mixed B","Read Mixed B",CACTUS,PLANT,Study2,F,98,75,STUDY,8,8,,Study/JOL,"Study Phase",8010,,,-1,-1,,,,1
w10086527,hbnfzfmp5y,Nick_Dissertation_EX2_EP,1,19,2021-09-14T12:45:16-07:00,8.5452561378479,2,Mixed_Stim.csv,READVersionB.csv,"Read Mixed B","Read Mixed B",ART,LION,Study1,U,79,23,STUDY,8,8,,Study/JOL,"Study Phase",8011,,,-1,-1,,,,1
w10086527,hbnfzfmp5y,Nick_Dissertation_EX2_EP,1,20,2021-09-14T12:45:24-07:00,8.4964270591736,2,Mixed_Stim.csv,READVersionB.csv,"Read Mixed B","Read Mixed B",EXTENSION,LONG,Study2,F,96,65,STUDY,8,8,,Study/JOL,"Study Phase",8005,,,-1,-1,,,,1
w10086527,hbnfzfmp5y,Nick_Dissertation_EX2_EP,1,21,2021-09-14T12:45:33-07:00,8.4963879585266,2,Mixed_Stim.csv,READVersionB.csv,"Read Mixed B","Read Mixed B",LEASE,TOIL,Study2,U,170,86,STUDY,8,8,,Study/JOL,"Study Phase",8015,,,-1,-1,,,,1
w10086527,hbnfzfmp5y,Nick_Dissertation_EX2_EP,1,22,2021-09-14T12:45:41-07:00,8.4410338401794,2,Mixed_Stim.csv,READVersionB.csv,"Read Mixed B","Read Mixed B",MOAT,CLEAR,Study2,U,169,92,STUDY,8,8,,Study/JOL,"Study Phase",8007,,,-1,-1,,,,1
w10086527,hbnfzfmp5y,Nick_Dissertation_EX2_EP,1,23,2021-09-14T12:45:50-07:00,8.4620721340179,2,Mixed_Stim.csv,READVersionB.csv,"Read Mixed B","Read Mixed B",CLUE,GAME,Study2,F,97,91,STUDY,8,8,,Study/JOL,"Study Phase",8004,,,-1,-1,,,,1
w10086527,hbnfzfmp5y,Nick_Dissertation_EX2_EP,1,24,2021-09-14T12:45:58-07:00,8.4945268630981,2,Mixed_Stim.csv,READVersionB.csv,"Read Mixed B","Read Mixed B",SHOELACE,TIE,Study2,F,99,62,STUDY,8,8,,Study/JOL,"Study Phase",8008,,,-1,-1,,,,1
w10086527,hbnfzfmp5y,Nick_Dissertation_EX2_EP,1,25,2021-09-14T12:46:07-07:00,8.4994812011719,2,Mixed_Stim.csv,READVersionB.csv,"Read Mixed B","Read Mixed B",STRETCH,CLOTH,Study2,U,157,88,STUDY,8,8,,Study/JOL,"Study Phase",8010,,,-1,-1,,,,1
w10086527,hbnfzfmp5y,Nick_Dissertation_EX2_EP,1,26,2021-09-14T12:46:15-07:00,8.4599759578705,2,Mixed_Stim.csv,READVersionB.csv,"Read Mixed B","Read Mixed B",BOTH,OUNCE,Study2,U,172,59,STUDY,8,8,,Study/JOL,"Study Phase",8006,,,-1,-1,,,,1
w10086527,hbnfzfmp5y,Nick_Dissertation_EX2_EP,1,27,2021-09-14T12:46:24-07:00,8.4993858337402,2,Mixed_Stim.csv,READVersionB.csv,"Read Mixed B","Read Mixed B",LOAN,SIGN,Study2,U,171,79,STUDY,8,8,,Study/JOL,"Study Phase",8007,,,-1,-1,,,,1
w10086527,hbnfzfmp5y,Nick_Dissertation_EX2_EP,1,28,2021-09-14T12:46:32-07:00,8.4358191490173,2,Mixed_Stim.csv,READVersionB.csv,"Read Mixed B","Read Mixed B",DRIVER,CAR,Study2,F,106,81,STUDY,8,8,,Study/JOL,"Study Phase",8007,,,-1,-1,,,,1
w10086527,hbnfzfmp5y,Nick_Dissertation_EX2_EP,1,29,2021-09-14T12:46:41-07:00,8.4393639564514,2,Mixed_Stim.csv,READVersionB.csv,"Read Mixed B","Read Mixed B",KEYS,JOKE,Study2,U,165,74,STUDY,8,8,,Study/JOL,"Study Phase",8013,,,-1,-1,,,,0.829
w10086527,hbnfzfmp5y,Nick_Dissertation_EX2_EP,1,30,2021-09-14T12:46:49-07:00,8.458683013916,2,Mixed_Stim.csv,READVersionB.csv,"Read Mixed B","Read Mixed B",NAME,HATE,Study2,U,167,68,STUDY,8,8,,Study/JOL,"Study Phase",8006,,,-1,-1,,,,1
w10086527,hbnfzfmp5y,Nick_Dissertation_EX2_EP,1,31,2021-09-14T12:46:58-07:00,8.4400489330292,2,Mixed_Stim.csv,READVersionB.csv,"Read Mixed B","Read Mixed B",LISTEN,FICTION,Study2,U,164,70,STUDY,8,8,,Study/JOL,"Study Phase",8009,,,-1,-1,,,,1
w10086527,hbnfzfmp5y,Nick_Dissertation_EX2_EP,1,32,2021-09-14T12:47:06-07:00,8.4118440151215,2,Mixed_Stim.csv,READVersionB.csv,"Read Mixed B","Read Mixed B",MULE,DONKEY,Study2,F,108,71,STUDY,8,8,,Study/JOL,"Study Phase",8008,,,-1,-1,,,,1
w10086527,hbnfzfmp5y,Nick_Dissertation_EX2_EP,1,33,2021-09-14T12:47:14-07:00,8.4217541217804,2,Mixed_Stim.csv,READVersionB.csv,"Read Mixed B","Read Mixed B",LITTER,TRASH,Study2,F,103,90,STUDY,8,8,,Study/JOL,"Study Phase",8009,,,-1,-1,,,,1
w10086527,hbnfzfmp5y,Nick_Dissertation_EX2_EP,1,34,2021-09-14T12:47:23-07:00,8.5155758857727,2,Mixed_Stim.csv,READVersionB.csv,"Read Mixed B","Read Mixed B",CRACKLE,ABLE,Study2,U,162,93,STUDY,8,8,,Study/JOL,"Study Phase",8006,,,-1,-1,,,,1
w10086527,hbnfzfmp5y,Nick_Dissertation_EX2_EP,1,35,2021-09-14T12:47:31-07:00,8.3982090950012,2,Mixed_Stim.csv,READVersionB.csv,"Read Mixed B","Read Mixed B",CHILL,COLD,Study2,F,114,89,STUDY,8,8,,Study/JOL,"Study Phase",8002,,,-1,-1,,,,1
w10086527,hbnfzfmp5y,Nick_Dissertation_EX2_EP,1,36,2021-09-14T12:47:40-07:00,8.5033249855042,2,Mixed_Stim.csv,READVersionB.csv,"Read Mixed B","Read Mixed B",FUZZY,BANG,Study2,U,168,85,STUDY,8,8,,Study/JOL,"Study Phase",8007,,,-1,-1,,,,1
w10086527,hbnfzfmp5y,Nick_Dissertation_EX2_EP,1,37,2021-09-14T12:47:48-07:00,8.4740378856659,2,Mixed_Stim.csv,READVersionB.csv,"Read Mixed B","Read Mixed B",CAKE,CLOTHES,Study2,U,166,94,STUDY,8,8,,Study/JOL,"Study Phase",8007,,,-1,-1,,,,1
w10086527,hbnfzfmp5y,Nick_Dissertation_EX2_EP,1,38,2021-09-14T12:47:57-07:00,8.4840831756592,2,Mixed_Stim.csv,READVersionB.csv,"Read Mixed B","Read Mixed B",TEMPERATURE,Morning,Study2,U,173,63,STUDY,8,8,,Study/JOL,"Study Phase",8002,,,-1,-1,,,,1
w10086527,hbnfzfmp5y,Nick_Dissertation_EX2_EP,1,39,2021-09-14T12:48:05-07:00,8.4279029369354,2,Mixed_Stim.csv,READVersionB.csv,"Read Mixed B","Read Mixed B",SHEARS,SCISSORS,Study2,F,112,82,STUDY,8,8,,Study/JOL,"Study Phase",8010,,,-1,-1,,,,1
w10086527,hbnfzfmp5y,Nick_Dissertation_EX2_EP,1,40,2021-09-14T12:48:14-07:00,8.6065690517426,2,Mixed_Stim.csv,READVersionB.csv,"Read Mixed B","Read Mixed B",DETECTIVE,MYSTERY,Study2,F,100,87,STUDY,8,8,,Study/JOL,"Study Phase",8005,,,-1,-1,,,,1
w10086527,hbnfzfmp5y,Nick_Dissertation_EX2_EP,1,41,2021-09-14T12:48:22-07:00,8.4518849849701,2,Mixed_Stim.csv,READVersionB.csv,"Read Mixed B","Read Mixed B",FURRY,DOG,Study2,F,102,66,STUDY,8,8,,Study/JOL,"Study Phase",8003,,,-1,-1,,,,1
w10086527,hbnfzfmp5y,Nick_Dissertation_EX2_EP,1,42,2021-09-14T12:48:31-07:00,8.4128999710083,2,Mixed_Stim.csv,READVersionB.csv,"Read Mixed B","Read Mixed B",Shell,SHAKE,Study2,U,163,57,STUDY,8,8,,Study/JOL,"Study Phase",8005,,,-1,-1,,,,1
w10086527,hbnfzfmp5y,Nick_Dissertation_EX2_EP,1,43,2021-09-14T12:48:39-07:00,8.5135960578918,2,Mixed_Stim.csv,READVersionB.csv,"Read Mixed B","Read Mixed B",MAIN,SCAR,Study2,U,175,84,STUDY,8,8,,Study/JOL,"Study Phase",8005,,,-1,-1,,,,1
w10086527,hbnfzfmp5y,Nick_Dissertation_EX2_EP,1,44,2021-09-14T12:48:48-07:00,8.5596418380737,2,Mixed_Stim.csv,READVersionB.csv,"Read Mixed B","Read Mixed B",MEAT,OBTAIN,Study2,U,161,76,STUDY,8,8,,Study/JOL,"Study Phase",8004,,,-1,-1,,,,0.975
w10086527,hbnfzfmp5y,Nick_Dissertation_EX2_EP,1,45,2021-09-14T12:48:56-07:00,8.4238541126251,2,Mixed_Stim.csv,READVersionB.csv,"Read Mixed B","Read Mixed B",AFFECTION,LOVE,Study2,F,115,64,STUDY,8,8,,Study/JOL,"Study Phase",8003,,,-1,-1,,,,0.825
w10086527,hbnfzfmp5y,Nick_Dissertation_EX2_EP,1,46,2021-09-14T12:49:05-07:00,8.4352939128876,2,Mixed_Stim.csv,READVersionB.csv,"Read Mixed B","Read Mixed B",DINE,EAT,Study2,F,111,77,STUDY,8,8,,Study/JOL,"Study Phase",8013,,,-1,-1,,,,1
w10086527,hbnfzfmp5y,Nick_Dissertation_EX2_EP,1,47,2021-09-14T12:49:13-07:00,8.4514579772949,2,Mixed_Stim.csv,READVersionB.csv,"Read Mixed B","Read Mixed B",DAYS,WEAKS,BUFFER4,Buffer,176,97,STUDY,8,8,,Study/JOL,BUFFER2,8003,,,-1,-1,,,,1
w10086527,hbnfzfmp5y,Nick_Dissertation_EX2_EP,1,48,2021-09-14T12:49:21-07:00,8.4025769233704,2,Mixed_Stim.csv,READVersionB.csv,"Read Mixed B","Read Mixed B",OCTOBER,SPOOKY,BUFFER4,Buffer,180,100,STUDY,8,8,,Study/JOL,BUFFER2,8005,,,-1,-1,,,,1
w10086527,hbnfzfmp5y,Nick_Dissertation_EX2_EP,1,49,2021-09-14T12:49:30-07:00,8.4765012264252,2,Mixed_Stim.csv,READVersionB.csv,"Read Mixed B","Read Mixed B",TOOL,SHED,BUFFER4,Buffer,178,99,STUDY,8,8,,Study/JOL,BUFFER2,8005,,,-1,-1,,,,1
w10086527,hbnfzfmp5y,Nick_Dissertation_EX2_EP,1,50,2021-09-14T12:49:38-07:00,8.4421780109406,2,Mixed_Stim.csv,READVersionB.csv,"Read Mixed B","Read Mixed B",MONTH,YEAR,BUFFER4,Buffer,177,98,STUDY,8,8,,Study/JOL,BUFFER2,8006,,,-1,-1,,,,1
w10086527,hbnfzfmp5y,Nick_Dissertation_EX2_EP,1,51,2021-09-14T12:49:47-07:00,8.5148828029633,2,Mixed_Stim.csv,READVersionB.csv,"Read Mixed B","Read Mixed B",SPRING,MARCH,BUFFER4,Buffer,179,101,STUDY,8,8,,Study/JOL,BUFFER2,8004,,,-1,-1,,,,1
w10086527,hbnfzfmp5y,Nick_Dissertation_EX2_EP,1,52,2021-09-14T12:49:50-07:00,3.5416209697723,2,Mixed_Stim.csv,READVersionB.csv,"Read Mixed B","Read Mixed B",,,,,,0,Instruct,User,-,"You have completed this section. Please press Enter.",Filler_Instruction,Instruct2,3186,,,-1,-1,,,,1
w10086527,hbnfzfmp5y,Nick_Dissertation_EX2_EP,1,53,2021-09-14T12:51:51-07:00,120.70228815079,2,Mixed_Stim.csv,READVersionB.csv,"Read Mixed B","Read Mixed B",,,,,,0,FreeRecall,120,120,"Please list the 50 US states in alphabetical order. The task will automatically advance to the next screen after two minutes.",,Filler1,120012,"Alabama, Alaska, Arkansas, a California, Hawaii, Kansas, Louisiana, Maine, Michigan, Missouri, Mississippi, Nebraska, New Jersey, New York, Texas, Washington ",0,6264,119875,0,0,,1
w10086527,hbnfzfmp5y,Nick_Dissertation_EX2_EP,1,54,2021-09-14T12:52:03-07:00,11.808832883835,2,Mixed_Stim.csv,READVersionB.csv,"Read Mixed B","Read Mixed B",,,,,,0,Instruct,-,10,"You will now be presented with the first word from each of the previously studied item pairs. Please type the missing word. If you do not know the word, you may guess or press Enter to skip forward to the next pair.",,Instruct3,11288,,,-1,-1,,,,1
w10086527,hbnfzfmp5y,Nick_Dissertation_EX2_EP,1,55,2021-09-14T12:52:09-07:00,6.3345420360565,2,Mixed_Stim.csv,READVersionB.csv,"Read Mixed B","Read Mixed B",LISTEN,FICTION,Study2,U,164,70,Test,User,-,,Recall,Recall1,5799,Hear,0,3647,4243,0,0,,1
w10086527,hbnfzfmp5y,Nick_Dissertation_EX2_EP,1,56,2021-09-14T12:52:15-07:00,5.3664829730988,2,Mixed_Stim.csv,READVersionB.csv,"Read Mixed B","Read Mixed B",CHILL,COLD,Study2,F,114,89,Test,User,-,,Recall,Recall1,4754,COLD,100,2510,2938,1,1,,1
w10086527,hbnfzfmp5y,Nick_Dissertation_EX2_EP,1,57,2021-09-14T12:52:20-07:00,5.7854011058807,2,Mixed_Stim.csv,READVersionB.csv,"Read Mixed B","Read Mixed B",GIVE,STEAK,Study2,U,158,95,Test,User,-,,Recall,Recall1,5209,THANKS,54.545454545455,3018,3781,0,0,,1
w10086527,hbnfzfmp5y,Nick_Dissertation_EX2_EP,1,58,2021-09-14T12:52:25-07:00,4.6334519386292,2,Mixed_Stim.csv,READVersionB.csv,"Read Mixed B","Read Mixed B",BOTH,OUNCE,Study2,U,172,59,Test,User,-,,Recall,Recall1,4225,OUNCES,90.909090909091,1887,2842,0,1,,1
w10086527,hbnfzfmp5y,Nick_Dissertation_EX2_EP,1,59,2021-09-14T12:52:32-07:00,6.556391954422,2,Mixed_Stim.csv,READVersionB.csv,"Read Mixed B","Read Mixed B",NAME,HATE,Study2,U,167,68,Test,User,-,,Recall,Recall1,5993,GENDER,20,2614,4088,0,0,,1
w10086527,hbnfzfmp5y,Nick_Dissertation_EX2_EP,1,60,2021-09-14T12:52:35-07:00,3.5887651443481,2,Mixed_Stim.csv,READVersionB.csv,"Read Mixed B","Read Mixed B",AFFECTION,LOVE,Study2,F,115,64,Test,User,-,,Recall,Recall1,3079,LOVE,100,1268,1628,1,1,,1
w10086527,hbnfzfmp5y,Nick_Dissertation_EX2_EP,1,61,2021-09-14T12:52:40-07:00,4.2732198238373,2,Mixed_Stim.csv,READVersionB.csv,"Read Mixed B","Read Mixed B",SCALP,HEAD,Study2,F,105,72,Test,User,-,,Recall,Recall1,3846,HEAD,100,1191,1613,1,1,,1
w10086527,hbnfzfmp5y,Nick_Dissertation_EX2_EP,1,62,2021-09-14T12:52:44-07:00,4.2020800113678,2,Mixed_Stim.csv,READVersionB.csv,"Read Mixed B","Read Mixed B",SHEARS,SCISSORS,Study2,F,112,82,Test,User,-,,Recall,Recall1,3787,SCISSORS,100,1304,2388,1,1,,1
w10086527,hbnfzfmp5y,Nick_Dissertation_EX2_EP,1,63,2021-09-14T12:52:50-07:00,6.217297077179,2,Mixed_Stim.csv,READVersionB.csv,"Read Mixed B","Read Mixed B",DETECTIVE,MYSTERY,Study2,F,100,87,Test,User,-,,Recall,Recall1,5810,,0,-1,-1,0,0,,1
w10086527,hbnfzfmp5y,Nick_Dissertation_EX2_EP,1,64,2021-09-14T12:52:55-07:00,5.3748021125793,2,Mixed_Stim.csv,READVersionB.csv,"Read Mixed B","Read Mixed B",LOAN,SIGN,Study2,U,171,79,Test,User,-,,Recall,Recall1,5008,,0,-1,-1,0,0,,1
w10086527,hbnfzfmp5y,Nick_Dissertation_EX2_EP,1,65,2021-09-14T12:52:58-07:00,2.9581999778748,2,Mixed_Stim.csv,READVersionB.csv,"Read Mixed B","Read Mixed B",MULE,DONKEY,Study2,F,108,71,Test,User,-,,Recall,Recall1,2441,,0,-1,-1,0,0,,1
w10086527,hbnfzfmp5y,Nick_Dissertation_EX2_EP,1,66,2021-09-14T12:53:08-07:00,10.180655956268,2,Mixed_Stim.csv,READVersionB.csv,"Read Mixed B","Read Mixed B",TEMPERATURE,Morning,Study2,U,173,63,Test,User,-,,Recall,Recall1,9730,Mild,36.363636363636,5108,6101,0,0,,1
w10086527,hbnfzfmp5y,Nick_Dissertation_EX2_EP,1,67,2021-09-14T12:53:13-07:00,4.8144478797913,2,Mixed_Stim.csv,READVersionB.csv,"Read Mixed B","Read Mixed B",BOTH,OUNCE,Study2,U,172,59,Test,User,-,,Recall,Recall1,4282,OUNCES,90.909090909091,2143,2949,0,1,,1
w10086527,hbnfzfmp5y,Nick_Dissertation_EX2_EP,1,68,2021-09-14T12:53:25-07:00,12.228770017624,2,Mixed_Stim.csv,READVersionB.csv,"Read Mixed B","Read Mixed B",MIRROR,CHILDREN,Study2,U,174,60,Test,User,-,,Recall,Recall1,11741,GIVE,33.333333333333,5437,8621,0,0,,1
w10086527,hbnfzfmp5y,Nick_Dissertation_EX2_EP,1,69,2021-09-14T12:53:28-07:00,2.3650939464569,2,Mixed_Stim.csv,READVersionB.csv,"Read Mixed B","Read Mixed B",MOAT,CLEAR,Study2,U,169,92,Test,User,-,,Recall,Recall1,1732,,0,-1,-1,0,0,,1
w10086527,hbnfzfmp5y,Nick_Dissertation_EX2_EP,1,70,2021-09-14T12:53:34-07:00,5.9522020816803,2,Mixed_Stim.csv,READVersionB.csv,"Read Mixed B","Read Mixed B",Shell,SHAKE,Study2,U,163,57,Test,User,-,,Recall,Recall1,5321,,0,-1,-1,0,0,,1
w10086527,hbnfzfmp5y,Nick_Dissertation_EX2_EP,1,71,2021-09-14T12:53:37-07:00,3.2125589847565,2,Mixed_Stim.csv,READVersionB.csv,"Read Mixed B","Read Mixed B",FEUD,FIGHT,Study2,F,113,96,Test,User,-,,Recall,Recall1,2701,,0,-1,-1,0,0,,1
w10086527,hbnfzfmp5y,Nick_Dissertation_EX2_EP,1,72,2021-09-14T12:53:39-07:00,1.8656389713287,2,Mixed_Stim.csv,READVersionB.csv,"Read Mixed B","Read Mixed B",CHOP,CUT,Study2,F,107,80,Test,User,-,,Recall,Recall1,1371,,0,-1,-1,0,0,,1
w10086527,hbnfzfmp5y,Nick_Dissertation_EX2_EP,1,73,2021-09-14T12:53:42-07:00,3.0926251411438,2,Mixed_Stim.csv,READVersionB.csv,"Read Mixed B","Read Mixed B",FUZZY,BANG,Study2,U,168,85,Test,User,-,,Recall,Recall1,2662,,0,-1,-1,0,0,,1
w10086527,hbnfzfmp5y,Nick_Dissertation_EX2_EP,1,74,2021-09-14T12:53:45-07:00,2.9110560417175,2,Mixed_Stim.csv,READVersionB.csv,"Read Mixed B","Read Mixed B",LITTER,TRASH,Study2,F,103,90,Test,User,-,,Recall,Recall1,2490,,0,-1,-1,0,0,,1
w10086527,hbnfzfmp5y,Nick_Dissertation_EX2_EP,1,75,2021-09-14T12:53:48-07:00,3.3310239315033,2,Mixed_Stim.csv,READVersionB.csv,"Read Mixed B","Read Mixed B",CACTUS,PLANT,Study2,F,98,75,Test,User,-,,Recall,Recall1,2818,,0,-1,-1,0,0,,1
w10086527,hbnfzfmp5y,Nick_Dissertation_EX2_EP,1,76,2021-09-14T12:53:53-07:00,4.7313928604126,2,Mixed_Stim.csv,READVersionB.csv,"Read Mixed B","Read Mixed B",VEHICLE,CHARM,Study2,U,160,61,Test,User,-,,Recall,Recall1,4352,CAR,75,2243,2614,0,1,,1
w10086527,hbnfzfmp5y,Nick_Dissertation_EX2_EP,1,77,2021-09-14T12:53:57-07:00,4.2786431312561,2,Mixed_Stim.csv,READVersionB.csv,"Read Mixed B","Read Mixed B",CRACKLE,ABLE,Study2,U,162,93,Test,User,-,,Recall,Recall1,3787,POP,0,2087,2368,0,0,,1
w10086527,hbnfzfmp5y,Nick_Dissertation_EX2_EP,1,78,2021-09-14T12:54:02-07:00,4.7731809616089,2,Mixed_Stim.csv,READVersionB.csv,"Read Mixed B","Read Mixed B",CHERRY,RED,Study2,F,104,73,Test,User,-,,Recall,Recall1,4377,RED,100,2133,2458,1,1,,1
w10086527,hbnfzfmp5y,Nick_Dissertation_EX2_EP,1,79,2021-09-14T12:54:07-07:00,4.8559970855713,2,Mixed_Stim.csv,READVersionB.csv,"Read Mixed B","Read Mixed B",KEYS,JOKE,Study2,U,165,74,Test,User,-,,Recall,Recall1,4351,LOCK,50,2565,2982,0,0,,1
w10086527,hbnfzfmp5y,Nick_Dissertation_EX2_EP,1,80,2021-09-14T12:54:10-07:00,2.7624390125275,2,Mixed_Stim.csv,READVersionB.csv,"Read Mixed B","Read Mixed B",DRIVER,CAR,Study2,F,106,81,Test,User,-,,Recall,Recall1,2352,,0,-1,-1,0,0,,1
w10086527,hbnfzfmp5y,Nick_Dissertation_EX2_EP,1,81,2021-09-14T12:54:14-07:00,4.7128238677979,2,Mixed_Stim.csv,READVersionB.csv,"Read Mixed B","Read Mixed B",DINE,EAT,Study2,F,111,77,Test,User,-,,Recall,Recall1,4085,DASH,28.571428571429,2300,2749,0,0,,1
w10086527,hbnfzfmp5y,Nick_Dissertation_EX2_EP,1,82,2021-09-14T12:54:17-07:00,2.1709260940552,2,Mixed_Stim.csv,READVersionB.csv,"Read Mixed B","Read Mixed B",ART,LION,Study1,U,79,23,Test,User,-,,Recall,Recall1,1611,,0,-1,-1,0,0,,1
w10086527,hbnfzfmp5y,Nick_Dissertation_EX2_EP,1,83,2021-09-14T12:54:35-07:00,18.310023069382,2,Mixed_Stim.csv,READVersionB.csv,"Read Mixed B","Read Mixed B",MEAT,OBTAIN,Study2,U,161,76,Test,User,-,,Recall,Recall1,17482,,0,-1,-1,0,0,,1
w10086527,hbnfzfmp5y,Nick_Dissertation_EX2_EP,1,84,2021-09-14T12:54:39-07:00,3.7870538234711,2,Mixed_Stim.csv,READVersionB.csv,"Read Mixed B","Read Mixed B",FURRY,DOG,Study2,F,102,66,Test,User,-,,Recall,Recall1,3237,,0,-1,-1,0,0,,1
w10086527,hbnfzfmp5y,Nick_Dissertation_EX2_EP,1,85,2021-09-14T12:54:40-07:00,1.6376261711121,2,Mixed_Stim.csv,READVersionB.csv,"Read Mixed B","Read Mixed B",MAIN,SCAR,Study2,U,175,84,Test,User,-,,Recall,Recall1,1156,,0,-1,-1,0,0,,1
w10086527,hbnfzfmp5y,Nick_Dissertation_EX2_EP,1,86,2021-09-14T12:54:42-07:00,1.9710028171539,2,Mixed_Stim.csv,READVersionB.csv,"Read Mixed B","Read Mixed B",JUSTICE,MAROON,Study2,U,156,69,Test,User,-,,Recall,Recall1,1552,,0,-1,-1,0,0,,1
w10086527,hbnfzfmp5y,Nick_Dissertation_EX2_EP,1,87,2021-09-14T12:54:45-07:00,3.0471241474152,2,Mixed_Stim.csv,READVersionB.csv,"Read Mixed B","Read Mixed B",MAZE,ELECTION,Study2,U,159,78,Test,User,-,,Recall,Recall1,2536,,0,-1,-1,0,0,,1
w10086527,hbnfzfmp5y,Nick_Dissertation_EX2_EP,1,88,2021-09-14T12:54:47-07:00,1.7679119110107,2,Mixed_Stim.csv,READVersionB.csv,"Read Mixed B","Read Mixed B",LEASE,TOIL,Study2,U,170,86,Test,User,-,,Recall,Recall1,1330,,0,-1,-1,0,0,,1
w10086527,hbnfzfmp5y,Nick_Dissertation_EX2_EP,1,89,2021-09-14T12:54:48-07:00,1.4569439888,2,Mixed_Stim.csv,READVersionB.csv,"Read Mixed B","Read Mixed B",STRETCH,CLOTH,Study2,U,157,88,Test,User,-,,Recall,Recall1,949,,0,-1,-1,0,0,,1
w10086527,hbnfzfmp5y,Nick_Dissertation_EX2_EP,1,90,2021-09-14T12:54:51-07:00,2.109237909317,2,Mixed_Stim.csv,READVersionB.csv,"Read Mixed B","Read Mixed B",CAKE,CLOTHES,Study2,U,166,94,Test,User,-,,Recall,Recall1,1710,,0,-1,-1,0,0,,1
w10086527,hbnfzfmp5y,Nick_Dissertation_EX2_EP,1,91,2021-09-14T12:54:56-07:00,5.8601460456848,2,Mixed_Stim.csv,READVersionB.csv,"Read Mixed B","Read Mixed B",SHOELACE,TIE,Study2,F,99,62,Test,User,-,,Recall,Recall1,5350,TIE,100,3812,4132,1,1,,1
w10086527,hbnfzfmp5y,Nick_Dissertation_EX2_EP,1,92,2021-09-14T12:55:00-07:00,3.2281510829926,2,Mixed_Stim.csv,READVersionB.csv,"Read Mixed B","Read Mixed B",ADJOURN,END,Study2,F,101,67,Test,User,-,,Recall,Recall1,2822,END,100,1580,1812,1,1,,1
w10086527,hbnfzfmp5y,Nick_Dissertation_EX2_EP,1,93,2021-09-14T12:55:02-07:00,1.8596909046173,2,Mixed_Stim.csv,READVersionB.csv,"Read Mixed B","Read Mixed B",EXTENSION,LONG,Study2,F,96,65,Test,User,-,,Recall,Recall1,1411,,0,-1,-1,0,0,,1
w10086527,hbnfzfmp5y,Nick_Dissertation_EX2_EP,1,94,2021-09-14T12:55:10-07:00,8.9186570644379,2,Mixed_Stim.csv,READVersionB.csv,"Read Mixed B","Read Mixed B",CLUE,GAME,Study2,F,97,91,Test,User,-,,Recall,Recall1,8385,,0,-1,-1,0,0,,1
w10086527,hbnfzfmp5y,Nick_Dissertation_EX2_EP,1,95,2021-09-14T12:55:22-07:00,11.865221977234,2,Mixed_Stim.csv,READVersionB.csv,"Read Mixed B","Read Mixed B",,,,,,0,Instruct,-,10,"You will now be presented with a new set of word pairs. Please study each pair. Remember that your memory will be tested! Each pair will be displayed on the computer screen and will automatically advance to the next pair. Press ENTER when you are ready to begin.",Initial_Instruct,Instruct4,11471,,,-1,-1,,,,1
w10086527,hbnfzfmp5y,Nick_Dissertation_EX2_EP,1,96,2021-09-14T12:55:31-07:00,8.4250159263611,2,Mixed_Stim.csv,READVersionB.csv,"Read Mixed B","Read Mixed B",SCARE,HIDE,BUFFER1,Buffer,4,5,STUDY,8,8,,Study/JOL,BUFFER3,8013,,,-1,-1,,,,1
w10086527,hbnfzfmp5y,Nick_Dissertation_EX2_EP,1,97,2021-09-14T12:55:39-07:00,8.4902400970459,2,Mixed_Stim.csv,READVersionB.csv,"Read Mixed B","Read Mixed B",SPACE,JAM,BUFFER1,Buffer,5,6,STUDY,8,8,,Study/JOL,BUFFER3,8001,,,-1,-1,,,,1
w10086527,hbnfzfmp5y,Nick_Dissertation_EX2_EP,1,98,2021-09-14T12:55:48-07:00,8.5191180706024,2,Mixed_Stim.csv,READVersionB.csv,"Read Mixed B","Read Mixed B",TREES,GREEN,BUFFER1,Buffer,1,3,STUDY,8,8,,Study/JOL,BUFFER3,8004,,,-1,-1,,,,1
w10086527,hbnfzfmp5y,Nick_Dissertation_EX2_EP,1,99,2021-09-14T12:55:56-07:00,8.3618309497833,2,Mixed_Stim.csv,READVersionB.csv,"Read Mixed B","Read Mixed B",PEANUT,BUTTER,BUFFER1,Buffer,3,4,STUDY,8,8,,Study/JOL,BUFFER3,8003,,,-1,-1,,,,1
w10086527,hbnfzfmp5y,Nick_Dissertation_EX2_EP,1,100,2021-09-14T12:56:05-07:00,8.4984600543976,2,Mixed_Stim.csv,READVersionB.csv,"Read Mixed B","Read Mixed B",BASEBALL,CATCHER,BUFFER1,Buffer,2,2,STUDY,8,8,,Study/JOL,BUFFER3,8015,,,-1,-1,,,,1
w10086527,hbnfzfmp5y,Nick_Dissertation_EX2_EP,1,101,2021-09-14T12:56:13-07:00,8.6297528743744,2,Mixed_Stim.csv,READVersionB.csv,"Read Mixed B","Read Mixed B",HIDE,SICK,Study1,U,84,42,STUDY,8,8,,Study/JOL,"Study Phase2",8008,,,-1,-1,,,,1
w10086527,hbnfzfmp5y,Nick_Dissertation_EX2_EP,1,102,2021-09-14T12:56:22-07:00,8.42800116539,2,Mixed_Stim.csv,READVersionB.csv,"Read Mixed B","Read Mixed B",FIX,HAND,Study1,U,75,12,STUDY,8,8,,Study/JOL,"Study Phase2",8008,,,-1,-1,,,,1
w10086527,hbnfzfmp5y,Nick_Dissertation_EX2_EP,1,103,2021-09-14T12:56:30-07:00,8.4405000209808,2,Mixed_Stim.csv,READVersionB.csv,"Read Mixed B","Read Mixed B",HYGIENE,CLEAN,Study1,F,17,25,STUDY,8,8,,Study/JOL,"Study Phase2",8006,,,-1,-1,,,,1
w10086527,hbnfzfmp5y,Nick_Dissertation_EX2_EP,1,104,2021-09-14T12:56:39-07:00,8.4159507751465,2,Mixed_Stim.csv,READVersionB.csv,"Read Mixed B","Read Mixed B",CHISEL,HAMMER,Study1,F,9,32,STUDY,8,8,,Study/JOL,"Study Phase2",8008,,,-1,-1,,,,1
w10086527,hbnfzfmp5y,Nick_Dissertation_EX2_EP,1,105,2021-09-14T12:56:47-07:00,8.4206280708313,2,Mixed_Stim.csv,READVersionB.csv,"Read Mixed B","Read Mixed B",CREDIT,CARD,Study1,F,23,36,STUDY,8,8,,Study/JOL,"Study Phase2",8005,,,-1,-1,,,,1
w10086527,hbnfzfmp5y,Nick_Dissertation_EX2_EP,1,106,2021-09-14T12:56:55-07:00,8.5105769634247,2,Mixed_Stim.csv,READVersionB.csv,"Read Mixed B","Read Mixed B",ORCHID,FLOWER,Study1,F,24,13,STUDY,8,8,,Study/JOL,"Study Phase2",8006,,,-1,-1,,,,1
w10086527,hbnfzfmp5y,Nick_Dissertation_EX2_EP,1,107,2021-09-14T12:57:04-07:00,8.4318811893463,2,Mixed_Stim.csv,READVersionB.csv,"Read Mixed B","Read Mixed B",ALLOW,TUCK,Study1,U,78,8,STUDY,8,8,,Study/JOL,"Study Phase2",8009,,,-1,-1,,,,1
w10086527,hbnfzfmp5y,Nick_Dissertation_EX2_EP,1,108,2021-09-14T12:57:12-07:00,8.4430468082428,2,Mixed_Stim.csv,READVersionB.csv,"Read Mixed B","Read Mixed B",DEBATE,SIGHT,Study1,U,73,35,STUDY,8,8,,Study/JOL,"Study Phase2",8006,,,-1,-1,,,,1
w10086527,hbnfzfmp5y,Nick_Dissertation_EX2_EP,1,109,2021-09-14T12:57:21-07:00,8.5038349628448,2,Mixed_Stim.csv,READVersionB.csv,"Read Mixed B","Read Mixed B",PARK,HUNGRY,Study1,U,68,19,STUDY,8,8,,Study/JOL,"Study Phase2",8014,,,-1,-1,,,,1
w10086527,hbnfzfmp5y,Nick_Dissertation_EX2_EP,1,110,2021-09-14T12:57:29-07:00,8.5164401531219,2,Mixed_Stim.csv,READVersionB.csv,"Read Mixed B","Read Mixed B",VALLEY,ADD,Study1,U,82,22,STUDY,8,8,,Study/JOL,"Study Phase2",8005,,,-1,-1,,,,1
w10086527,hbnfzfmp5y,Nick_Dissertation_EX2_EP,1,111,2021-09-14T12:57:38-07:00,8.521152973175,2,Mixed_Stim.csv,READVersionB.csv,"Read Mixed B","Read Mixed B",ART,LION,Study1,U,79,23,STUDY,8,8,,Study/JOL,"Study Phase2",8015,,,-1,-1,,,,1
w10086527,hbnfzfmp5y,Nick_Dissertation_EX2_EP,1,112,2021-09-14T12:57:46-07:00,8.5868670940399,2,Mixed_Stim.csv,READVersionB.csv,"Read Mixed B","Read Mixed B",LIFT,WOMAN,Study1,U,69,38,STUDY,8,8,,Study/JOL,"Study Phase2",8005,,,-1,-1,,,,1
w10086527,hbnfzfmp5y,Nick_Dissertation_EX2_EP,1,113,2021-09-14T12:57:55-07:00,8.5135159492493,2,Mixed_Stim.csv,READVersionB.csv,"Read Mixed B","Read Mixed B",DIGESTION,STOMACH,Study1,F,7,17,STUDY,8,8,,Study/JOL,"Study Phase2",8006,,,-1,-1,,,,1
w10086527,hbnfzfmp5y,Nick_Dissertation_EX2_EP,1,114,2021-09-14T12:58:03-07:00,8.4562358856201,2,Mixed_Stim.csv,READVersionB.csv,"Read Mixed B","Read Mixed B",STRONG,ACCIDENT,Study1,U,80,20,STUDY,8,8,,Study/JOL,"Study Phase2",8005,,,-1,-1,,,,1
w10086527,hbnfzfmp5y,Nick_Dissertation_EX2_EP,1,115,2021-09-14T12:58:12-07:00,8.5269920825958,2,Mixed_Stim.csv,READVersionB.csv,"Read Mixed B","Read Mixed B",DELINQUENT,BAD,Study1,F,6,26,STUDY,8,8,,Study/JOL,"Study Phase2",8009,,,-1,-1,,,,1
w10086527,hbnfzfmp5y,Nick_Dissertation_EX2_EP,1,116,2021-09-14T12:58:20-07:00,8.498694896698,2,Mixed_Stim.csv,READVersionB.csv,"Read Mixed B","Read Mixed B",PAW,DOG,Study1,F,15,44,STUDY,8,8,,Study/JOL,"Study Phase2",8006,,,-1,-1,,,,1
w10086527,hbnfzfmp5y,Nick_Dissertation_EX2_EP,1,117,2021-09-14T12:58:29-07:00,8.4870979785919,2,Mixed_Stim.csv,READVersionB.csv,"Read Mixed B","Read Mixed B",SWAN,BIRD,Study1,F,14,18,STUDY,8,8,,Study/JOL,"Study Phase2",8005,,,-1,-1,,,,1
w10086527,hbnfzfmp5y,Nick_Dissertation_EX2_EP,1,118,2021-09-14T12:58:37-07:00,8.4955401420593,2,Mixed_Stim.csv,READVersionB.csv,"Read Mixed B","Read Mixed B",EDITOR,NEWS,Study1,F,10,7,STUDY,8,8,,Study/JOL,"Study Phase2",8006,,,-1,-1,,,,1
w10086527,hbnfzfmp5y,Nick_Dissertation_EX2_EP,1,119,2021-09-14T12:58:46-07:00,8.5098440647125,2,Mixed_Stim.csv,READVersionB.csv,"Read Mixed B","Read Mixed B",BITTER,COLD,Study1,F,12,30,STUDY,8,8,,Study/JOL,"Study Phase2",8011,,,-1,-1,,,,1
w10086527,hbnfzfmp5y,Nick_Dissertation_EX2_EP,1,120,2021-09-14T12:58:54-07:00,8.4927558898926,2,Mixed_Stim.csv,READVersionB.csv,"Read Mixed B","Read Mixed B",MACHINE,POSITION,Study1,U,76,14,STUDY,8,8,,Study/JOL,"Study Phase2",8008,,,-1,-1,,,,1
w10086527,hbnfzfmp5y,Nick_Dissertation_EX2_EP,1,121,2021-09-14T12:59:03-07:00,8.5134360790253,2,Mixed_Stim.csv,READVersionB.csv,"Read Mixed B","Read Mixed B",HAPPY,CAR,Study1,U,77,9,STUDY,8,8,,Study/JOL,"Study Phase2",8007,,,-1,-1,,,,1
w10086527,hbnfzfmp5y,Nick_Dissertation_EX2_EP,1,122,2021-09-14T12:59:11-07:00,8.3948249816895,2,Mixed_Stim.csv,READVersionB.csv,"Read Mixed B","Read Mixed B",SUGAR,RIDDLE,Study1,U,81,11,STUDY,8,8,,Study/JOL,"Study Phase2",8004,,,-1,-1,,,,1
w10086527,hbnfzfmp5y,Nick_Dissertation_EX2_EP,1,123,2021-09-14T12:59:20-07:00,8.440004825592,2,Mixed_Stim.csv,READVersionB.csv,"Read Mixed B","Read Mixed B",KING,VASE,Study1,U,85,45,STUDY,8,8,,Study/JOL,"Study Phase2",8009,,,-1,-1,,,,1
w10086527,hbnfzfmp5y,Nick_Dissertation_EX2_EP,1,124,2021-09-14T12:59:28-07:00,8.5136542320251,2,Mixed_Stim.csv,READVersionB.csv,"Read Mixed B","Read Mixed B",ARTERY,BRONZE,Study1,U,74,24,STUDY,8,8,,Study/JOL,"Study Phase2",8004,,,-1,-1,,,,1
w10086527,hbnfzfmp5y,Nick_Dissertation_EX2_EP,1,125,2021-09-14T12:59:37-07:00,8.4676368236542,2,Mixed_Stim.csv,READVersionB.csv,"Read Mixed B","Read Mixed B",REVOLUTION,WAR,Study1,F,20,16,STUDY,8,8,,Study/JOL,"Study Phase2",8012,,,-1,-1,,,,1
w10086527,hbnfzfmp5y,Nick_Dissertation_EX2_EP,1,126,2021-09-14T12:59:45-07:00,8.4583301544189,2,Mixed_Stim.csv,READVersionB.csv,"Read Mixed B","Read Mixed B",DISCUSSION,TALK,Study1,F,21,37,STUDY,8,8,,Study/JOL,"Study Phase2",8005,,,-1,-1,,,,1
w10086527,hbnfzfmp5y,Nick_Dissertation_EX2_EP,1,127,2021-09-14T12:59:54-07:00,8.5004999637604,2,Mixed_Stim.csv,READVersionB.csv,"Read Mixed B","Read Mixed B",TUNA,FISH,Study1,F,25,43,STUDY,8,8,,Study/JOL,"Study Phase2",8011,,,-1,-1,,,,1
w10086527,hbnfzfmp5y,Nick_Dissertation_EX2_EP,1,128,2021-09-14T13:00:02-07:00,8.5124819278717,2,Mixed_Stim.csv,READVersionB.csv,"Read Mixed B","Read Mixed B",DEATH,BUSINESS,Study1,U,72,40,STUDY,8,8,,Study/JOL,"Study Phase2",8007,,,-1,-1,,,,1
w10086527,hbnfzfmp5y,Nick_Dissertation_EX2_EP,1,129,2021-09-14T13:00:11-07:00,8.4889590740204,2,Mixed_Stim.csv,READVersionB.csv,"Read Mixed B","Read Mixed B",PUSHER,CLUTTER,Study1,U,66,10,STUDY,8,8,,Study/JOL,"Study Phase2",8006,,,-1,-1,,,,1
w10086527,hbnfzfmp5y,Nick_Dissertation_EX2_EP,1,130,2021-09-14T13:00:19-07:00,8.4801490306854,2,Mixed_Stim.csv,READVersionB.csv,"Read Mixed B","Read Mixed B",SOON,BELT,Study1,U,70,15,STUDY,8,8,,Study/JOL,"Study Phase2",8005,,,-1,-1,,,,1
w10086527,hbnfzfmp5y,Nick_Dissertation_EX2_EP,1,131,2021-09-14T13:00:29-07:00,9.5548930168152,2,Mixed_Stim.csv,READVersionB.csv,"Read Mixed B","Read Mixed B",WAGE,MONEY,Study1,F,8,34,STUDY,8,8,,Study/JOL,"Study Phase2",8006,,,-1,-1,,,,1
w10086527,hbnfzfmp5y,Nick_Dissertation_EX2_EP,1,132,2021-09-14T13:00:37-07:00,8.5453388690948,2,Mixed_Stim.csv,READVersionB.csv,"Read Mixed B","Read Mixed B",WAY,OUT,Study1,F,16,33,STUDY,8,8,,Study/JOL,"Study Phase2",8005,,,-1,-1,,,,1
w10086527,hbnfzfmp5y,Nick_Dissertation_EX2_EP,1,133,2021-09-14T13:00:46-07:00,8.4743120670319,2,Mixed_Stim.csv,READVersionB.csv,"Read Mixed B","Read Mixed B",HERD,COW,Study1,F,22,21,STUDY,8,8,,Study/JOL,"Study Phase2",8013,,,-1,-1,,,,1
w10086527,hbnfzfmp5y,Nick_Dissertation_EX2_EP,1,134,2021-09-14T13:00:54-07:00,8.4658918380737,2,Mixed_Stim.csv,READVersionB.csv,"Read Mixed B","Read Mixed B",DISCOVER,FLOOR,Study1,U,71,27,STUDY,8,8,,Study/JOL,"Study Phase2",8002,,,-1,-1,,,,1
w10086527,hbnfzfmp5y,Nick_Dissertation_EX2_EP,1,135,2021-09-14T13:01:03-07:00,8.3857910633087,2,Mixed_Stim.csv,READVersionB.csv,"Read Mixed B","Read Mixed B",BRIDGE,WATER,Study1,F,18,46,STUDY,8,8,,Study/JOL,"Study Phase2",8008,,,-1,-1,,,,1
w10086527,hbnfzfmp5y,Nick_Dissertation_EX2_EP,1,136,2021-09-14T13:01:11-07:00,8.4957611560822,2,Mixed_Stim.csv,READVersionB.csv,"Read Mixed B","Read Mixed B",GEOLOGY,ROCK,Study1,F,19,31,STUDY,8,8,,Study/JOL,"Study Phase2",8005,,,-1,-1,,,,1
w10086527,hbnfzfmp5y,Nick_Dissertation_EX2_EP,1,137,2021-09-14T13:01:20-07:00,8.3628108501434,2,Mixed_Stim.csv,READVersionB.csv,"Read Mixed B","Read Mixed B",CASH,WOULD,Study1,U,83,39,STUDY,8,8,,Study/JOL,"Study Phase2",8009,,,-1,-1,,,,1
w10086527,hbnfzfmp5y,Nick_Dissertation_EX2_EP,1,138,2021-09-14T13:01:28-07:00,8.3634390830994,2,Mixed_Stim.csv,READVersionB.csv,"Read Mixed B","Read Mixed B",DIETARY,SACKING,Study1,U,67,41,STUDY,8,8,,Study/JOL,"Study Phase2",8004,,,-1,-1,,,,1
w10086527,hbnfzfmp5y,Nick_Dissertation_EX2_EP,1,139,2021-09-14T13:01:36-07:00,8.3491089344025,2,Mixed_Stim.csv,READVersionB.csv,"Read Mixed B","Read Mixed B",HORNET,STING,Study1,F,11,29,STUDY,8,8,,Study/JOL,"Study Phase2",8007,,,-1,-1,,,,1
w10086527,hbnfzfmp5y,Nick_Dissertation_EX2_EP,1,140,2021-09-14T13:01:45-07:00,8.3720970153809,2,Mixed_Stim.csv,READVersionB.csv,"Read Mixed B","Read Mixed B",ROOT,PLANT,Study1,F,13,28,STUDY,8,8,,Study/JOL,"Study Phase2",8004,,,-1,-1,,,,1
w10086527,hbnfzfmp5y,Nick_Dissertation_EX2_EP,1,141,2021-09-14T13:01:53-07:00,8.4471430778503,2,Mixed_Stim.csv,READVersionB.csv,"Read Mixed B","Read Mixed B",GEESE,GOOSE,BUFFER2,Buffer,86,51,STUDY,8,8,,Study/JOL,BUFFER4,8008,,,-1,-1,,,,1
w10086527,hbnfzfmp5y,Nick_Dissertation_EX2_EP,1,142,2021-09-14T13:02:02-07:00,8.5562748908997,2,Mixed_Stim.csv,READVersionB.csv,"Read Mixed B","Read Mixed B",MALT,CHOCOLATE,BUFFER2,Buffer,88,48,STUDY,8,8,,Study/JOL,BUFFER4,8003,,,-1,-1,,,,1
w10086527,hbnfzfmp5y,Nick_Dissertation_EX2_EP,1,143,2021-09-14T13:02:10-07:00,8.497631072998,2,Mixed_Stim.csv,READVersionB.csv,"Read Mixed B","Read Mixed B",SHERRIF,POLICE,BUFFER2,Buffer,87,50,STUDY,8,8,,Study/JOL,BUFFER4,8009,,,-1,-1,,,,1
w10086527,hbnfzfmp5y,Nick_Dissertation_EX2_EP,1,144,2021-09-14T13:02:19-07:00,8.4116630554199,2,Mixed_Stim.csv,READVersionB.csv,"Read Mixed B","Read Mixed B",MOON,SPACE,BUFFER2,Buffer,89,47,STUDY,8,8,,Study/JOL,BUFFER4,8002,,,-1,-1,,,,1
w10086527,hbnfzfmp5y,Nick_Dissertation_EX2_EP,1,145,2021-09-14T13:02:27-07:00,8.339781999588,2,Mixed_Stim.csv,READVersionB.csv,"Read Mixed B","Read Mixed B",THING,STUFF,BUFFER2,Buffer,90,49,STUDY,8,8,,Study/JOL,BUFFER4,8006,,,-1,-1,,,,1
w10086527,hbnfzfmp5y,Nick_Dissertation_EX2_EP,1,146,2021-09-14T13:02:37-07:00,9.6762099266052,2,Mixed_Stim.csv,READVersionB.csv,"Read Mixed B","Read Mixed B",,,,,,0,Instruct,User,-,"You have completed this section. Please press Enter.",Filler_Instruction,Instruct5,9213,,,-1,-1,,,,1
w10086527,hbnfzfmp5y,Nick_Dissertation_EX2_EP,1,147,2021-09-14T13:04:37-07:00,120.53244304657,2,Mixed_Stim.csv,READVersionB.csv,"Read Mixed B","Read Mixed B",,,,,,0,FreeRecall,120,120,"Please list the 50 US states in reverse alphabetical order (z - a). The task will automatically advance to the next screen after two minutes.",,Filler2,120006,"Wisconsin, Washington, New york, new jersey, Nevada, Mississippi, Maine, Louisiana, Hawaii, California, Arizona, Alabama, Alaska, ",0,3887,114375,0,0,,1
w10086527,hbnfzfmp5y,Nick_Dissertation_EX2_EP,1,148,2021-09-14T13:05:04-07:00,27.386782884598,2,Mixed_Stim.csv,READVersionB.csv,"Read Mixed B","Read Mixed B",,,,,,0,Instruct,-,10,"You will now be presented with the first word from each of the previously studied item pairs. Please type the missing word. If you do not know the word, you may guess or press Enter to skip forward to the next pair.",,Instruct6,26917,,,-1,-1,,,,1
w10086527,hbnfzfmp5y,Nick_Dissertation_EX2_EP,1,149,2021-09-14T13:05:17-07:00,12.114948034286,2,Mixed_Stim.csv,READVersionB.csv,"Read Mixed B","Read Mixed B",CASH,WOULD,Study1,U,83,39,Test,User,-,,Recall,Recall2,11786,MONEY,20,8310,11643,0,0,,1
w10086527,hbnfzfmp5y,Nick_Dissertation_EX2_EP,1,150,2021-09-14T13:05:21-07:00,4.220860004425,2,Mixed_Stim.csv,READVersionB.csv,"Read Mixed B","Read Mixed B",FIX,HAND,Study1,U,75,12,Test,User,-,,Recall,Recall2,3793,HAND,100,3063,3436,1,1,,1
w10086527,hbnfzfmp5y,Nick_Dissertation_EX2_EP,1,151,2021-09-14T13:05:30-07:00,9.0912730693817,2,Mixed_Stim.csv,READVersionB.csv,"Read Mixed B","Read Mixed B",HAPPY,CAR,Study1,U,77,9,Test,User,-,,Recall,Recall2,8685,PLACE,25,7883,8497,0,0,,1
w10086527,hbnfzfmp5y,Nick_Dissertation_EX2_EP,1,152,2021-09-14T13:05:36-07:00,6.1489398479462,2,Mixed_Stim.csv,READVersionB.csv,"Read Mixed B","Read Mixed B",SWAN,BIRD,Study1,F,14,18,Test,User,-,,Recall,Recall2,5564,BIRD,100,4871,5418,1,1,,1
w10086527,hbnfzfmp5y,Nick_Dissertation_EX2_EP,1,153,2021-09-14T13:05:40-07:00,4.4179952144623,2,Mixed_Stim.csv,READVersionB.csv,"Read Mixed B","Read Mixed B",EDITOR,NEWS,Study1,F,10,7,Test,User,-,,Recall,Recall2,3964,NEWS,100,3395,3848,1,1,,1
w10086527,hbnfzfmp5y,Nick_Dissertation_EX2_EP,1,154,2021-09-14T13:05:43-07:00,2.3469848632812,2,Mixed_Stim.csv,READVersionB.csv,"Read Mixed B","Read Mixed B",HYGIENE,CLEAN,Study1,F,17,25,Test,User,-,,Recall,Recall2,1884,CLEAN,100,1157,1599,1,1,,1
w10086527,hbnfzfmp5y,Nick_Dissertation_EX2_EP,1,155,2021-09-14T13:05:53-07:00,10.351297140121,2,Mixed_Stim.csv,READVersionB.csv,"Read Mixed B","Read Mixed B",WAY,OUT,Study1,F,16,33,Test,User,-,,Recall,Recall2,9845,DOWN,28.571428571429,9141,9531,0,0,,1
w10086527,hbnfzfmp5y,Nick_Dissertation_EX2_EP,1,156,2021-09-14T13:05:55-07:00,2.153392791748,2,Mixed_Stim.csv,READVersionB.csv,"Read Mixed B","Read Mixed B",ROOT,PLANT,Study1,F,13,28,Test,User,-,,Recall,Recall2,1713,PLANT,100,1079,1579,1,1,,1
w10086527,hbnfzfmp5y,Nick_Dissertation_EX2_EP,1,157,2021-09-14T13:05:59-07:00,4.2089080810547,2,Mixed_Stim.csv,READVersionB.csv,"Read Mixed B","Read Mixed B",CHISEL,HAMMER,Study1,F,9,32,Test,User,-,,Recall,Recall2,3873,HAMMER,100,3238,3729,1,1,,1
w10086527,hbnfzfmp5y,Nick_Dissertation_EX2_EP,1,158,2021-09-14T13:06:08-07:00,8.9188759326935,2,Mixed_Stim.csv,READVersionB.csv,"Read Mixed B","Read Mixed B",SUGAR,RIDDLE,Study1,U,81,11,Test,User,-,,Recall,Recall2,8634,RUSH,20,1193,1620,0,0,,1
w10086527,hbnfzfmp5y,Nick_Dissertation_EX2_EP,1,159,2021-09-14T13:06:17-07:00,8.5539569854736,2,Mixed_Stim.csv,READVersionB.csv,"Read Mixed B","Read Mixed B",DIETARY,SACKING,Study1,U,67,41,Test,User,-,,Recall,Recall2,8078,SNACK,66.666666666667,2478,6016,0,0,,1
w10086527,hbnfzfmp5y,Nick_Dissertation_EX2_EP,1,160,2021-09-14T13:06:20-07:00,3.1019570827484,2,Mixed_Stim.csv,READVersionB.csv,"Read Mixed B","Read Mixed B",HIDE,SICK,Study1,U,84,42,Test,User,-,,Recall,Recall2,2671,SEEK,50,1390,2395,0,0,,1
w10086527,hbnfzfmp5y,Nick_Dissertation_EX2_EP,1,161,2021-09-14T13:06:27-07:00,6.6335010528564,2,Mixed_Stim.csv,READVersionB.csv,"Read Mixed B","Read Mixed B",SOON,BELT,Study1,U,70,15,Test,User,-,,Recall,Recall2,6221,AFTER,22.222222222222,1176,1937,0,0,,1
w10086527,hbnfzfmp5y,Nick_Dissertation_EX2_EP,1,162,2021-09-14T13:06:31-07:00,4.338583946228,2,Mixed_Stim.csv,READVersionB.csv,"Read Mixed B","Read Mixed B",DEBATE,SIGHT,Study1,U,73,35,Test,User,-,,Recall,Recall2,3943,TEAM,22.222222222222,2526,3130,0,0,,1
w10086527,hbnfzfmp5y,Nick_Dissertation_EX2_EP,1,163,2021-09-14T13:06:33-07:00,2.1052401065826,2,Mixed_Stim.csv,READVersionB.csv,"Read Mixed B","Read Mixed B",GEOLOGY,ROCK,Study1,F,19,31,Test,User,-,,Recall,Recall2,1705,ROCK,100,994,1365,1,1,,1
w10086527,hbnfzfmp5y,Nick_Dissertation_EX2_EP,1,164,2021-09-14T13:06:35-07:00,2.1835110187531,2,Mixed_Stim.csv,READVersionB.csv,"Read Mixed B","Read Mixed B",ORCHID,FLOWER,Study1,F,24,13,Test,User,-,,Recall,Recall2,1765,FLOWER,100,993,1627,1,1,,1
w10086527,hbnfzfmp5y,Nick_Dissertation_EX2_EP,1,165,2021-09-14T13:06:41-07:00,5.3675367832184,2,Mixed_Stim.csv,READVersionB.csv,"Read Mixed B","Read Mixed B",WAGE,MONEY,Study1,F,8,34,Test,User,-,,Recall,Recall2,4985,MONEY,100,3909,4541,1,1,,1
w10086527,hbnfzfmp5y,Nick_Dissertation_EX2_EP,1,166,2021-09-14T13:06:51-07:00,10.268158197403,2,Mixed_Stim.csv,READVersionB.csv,"Read Mixed B","Read Mixed B",STRONG,ACCIDENT,Study1,U,80,20,Test,User,-,,Recall,Recall2,9867,,0,-1,-1,0,0,,1
w10086527,hbnfzfmp5y,Nick_Dissertation_EX2_EP,1,167,2021-09-14T13:06:53-07:00,2.4860718250275,2,Mixed_Stim.csv,READVersionB.csv,"Read Mixed B","Read Mixed B",TUNA,FISH,Study1,F,25,43,Test,User,-,,Recall,Recall2,2085,FISH,100,1091,1653,1,1,,1
w10086527,hbnfzfmp5y,Nick_Dissertation_EX2_EP,1,168,2021-09-14T13:07:02-07:00,8.054496049881,2,Mixed_Stim.csv,READVersionB.csv,"Read Mixed B","Read Mixed B",VALLEY,ADD,Study1,U,82,22,Test,User,-,,Recall,Recall2,7579,,0,-1,-1,0,0,,1
w10086527,hbnfzfmp5y,Nick_Dissertation_EX2_EP,1,169,2021-09-14T13:07:10-07:00,8.1189150810242,2,Mixed_Stim.csv,READVersionB.csv,"Read Mixed B","Read Mixed B",DEATH,BUSINESS,Study1,U,72,40,Test,User,-,,Recall,Recall2,7676,,0,-1,-1,0,0,,1
w10086527,hbnfzfmp5y,Nick_Dissertation_EX2_EP,1,170,2021-09-14T13:07:15-07:00,5.6187808513641,2,Mixed_Stim.csv,READVersionB.csv,"Read Mixed B","Read Mixed B",LIFT,WOMAN,Study1,U,69,38,Test,User,-,,Recall,Recall2,5231,WOMAN,100,4179,4848,1,1,,1
w10086527,hbnfzfmp5y,Nick_Dissertation_EX2_EP,1,171,2021-09-14T13:07:18-07:00,2.8867611885071,2,Mixed_Stim.csv,READVersionB.csv,"Read Mixed B","Read Mixed B",HERD,COW,Study1,F,22,21,Test,User,-,,Recall,Recall2,2481,COW,100,1550,1895,1,1,,1
w10086527,hbnfzfmp5y,Nick_Dissertation_EX2_EP,1,172,2021-09-14T13:07:26-07:00,7.7930479049683,2,Mixed_Stim.csv,READVersionB.csv,"Read Mixed B","Read Mixed B",DISCUSSION,TALK,Study1,F,21,37,Test,User,-,,Recall,Recall2,7403,,0,-1,-1,0,0,,1
w10086527,hbnfzfmp5y,Nick_Dissertation_EX2_EP,1,173,2021-09-14T13:07:31-07:00,5.0953419208527,2,Mixed_Stim.csv,READVersionB.csv,"Read Mixed B","Read Mixed B",PUSHER,CLUTTER,Study1,U,66,10,Test,User,-,,Recall,Recall2,4701,,0,-1,-1,0,0,,1
w10086527,hbnfzfmp5y,Nick_Dissertation_EX2_EP,1,174,2021-09-14T13:07:34-07:00,2.6825001239777,2,Mixed_Stim.csv,READVersionB.csv,"Read Mixed B","Read Mixed B",HORNET,STING,Study1,F,11,29,Test,User,-,,Recall,Recall2,2289,STING,100,1506,2103,1,1,,1
w10086527,hbnfzfmp5y,Nick_Dissertation_EX2_EP,1,175,2021-09-14T13:07:36-07:00,2.4949979782104,2,Mixed_Stim.csv,READVersionB.csv,"Read Mixed B","Read Mixed B",PAW,DOG,Study1,F,15,44,Test,User,-,,Recall,Recall2,2114,DOG,100,1617,1951,1,1,,1
w10086527,hbnfzfmp5y,Nick_Dissertation_EX2_EP,1,176,2021-09-14T13:07:38-07:00,1.9134769439697,2,Mixed_Stim.csv,READVersionB.csv,"Read Mixed B","Read Mixed B",REVOLUTION,WAR,Study1,F,20,16,Test,User,-,,Recall,Recall2,1462,WAR,100,1048,1372,1,1,,1
w10086527,hbnfzfmp5y,Nick_Dissertation_EX2_EP,1,177,2021-09-14T13:07:41-07:00,2.6650171279907,2,Mixed_Stim.csv,READVersionB.csv,"Read Mixed B","Read Mixed B",ARTERY,BRONZE,Study1,U,74,24,Test,User,-,,Recall,Recall2,2298,,0,-1,-1,0,0,,1
w10086527,hbnfzfmp5y,Nick_Dissertation_EX2_EP,1,178,2021-09-14T13:07:46-07:00,4.8009350299835,2,Mixed_Stim.csv,READVersionB.csv,"Read Mixed B","Read Mixed B",DISCOVER,FLOOR,Study1,U,71,27,Test,User,-,,Recall,Recall2,4428,,0,-1,-1,0,0,,1
w10086527,hbnfzfmp5y,Nick_Dissertation_EX2_EP,1,179,2021-09-14T13:07:50-07:00,4.124253988266,2,Mixed_Stim.csv,READVersionB.csv,"Read Mixed B","Read Mixed B",DIGESTION,STOMACH,Study1,F,7,17,Test,User,-,,Recall,Recall2,3721,STOMACH,100,2279,3347,1,1,,1
w10086527,hbnfzfmp5y,Nick_Dissertation_EX2_EP,1,180,2021-09-14T13:07:53-07:00,3.0893499851227,2,Mixed_Stim.csv,READVersionB.csv,"Read Mixed B","Read Mixed B",KING,VASE,Study1,U,85,45,Test,User,-,,Recall,Recall2,2612,,0,-1,-1,0,0,,1
w10086527,hbnfzfmp5y,Nick_Dissertation_EX2_EP,1,181,2021-09-14T13:08:00-07:00,7.4202198982239,2,Mixed_Stim.csv,READVersionB.csv,"Read Mixed B","Read Mixed B",ART,LION,Study1,U,79,23,Test,User,-,,Recall,Recall2,6988,,0,-1,-1,0,0,,1
w10086527,hbnfzfmp5y,Nick_Dissertation_EX2_EP,1,182,2021-09-14T13:08:02-07:00,2.1390860080719,2,Mixed_Stim.csv,READVersionB.csv,"Read Mixed B","Read Mixed B",CREDIT,CARD,Study1,F,23,36,Test,User,-,,Recall,Recall2,1727,CARD,100,1085,1615,1,1,,1
w10086527,hbnfzfmp5y,Nick_Dissertation_EX2_EP,1,183,2021-09-14T13:08:05-07:00,3.0869359970093,2,Mixed_Stim.csv,READVersionB.csv,"Read Mixed B","Read Mixed B",MACHINE,POSITION,Study1,U,76,14,Test,User,-,,Recall,Recall2,2638,,0,-1,-1,0,0,,1
w10086527,hbnfzfmp5y,Nick_Dissertation_EX2_EP,1,184,2021-09-14T13:08:08-07:00,2.1365790367126,2,Mixed_Stim.csv,READVersionB.csv,"Read Mixed B","Read Mixed B",BRIDGE,WATER,Study1,F,18,46,Test,User,-,,Recall,Recall2,1751,WATER,100,963,1596,1,1,,1
w10086527,hbnfzfmp5y,Nick_Dissertation_EX2_EP,1,185,2021-09-14T13:08:12-07:00,4.875864982605,2,Mixed_Stim.csv,READVersionB.csv,"Read Mixed B","Read Mixed B",ALLOW,TUCK,Study1,U,78,8,Test,User,-,,Recall,Recall2,4387,,0,-1,-1,0,0,,1
w10086527,hbnfzfmp5y,Nick_Dissertation_EX2_EP,1,186,2021-09-14T13:08:16-07:00,3.3464829921722,2,Mixed_Stim.csv,READVersionB.csv,"Read Mixed B","Read Mixed B",DELINQUENT,BAD,Study1,F,6,26,Test,User,-,,Recall,Recall2,2242,BAD,100,1793,2070,1,1,,1
w10086527,hbnfzfmp5y,Nick_Dissertation_EX2_EP,1,187,2021-09-14T13:08:18-07:00,2.2477688789368,2,Mixed_Stim.csv,READVersionB.csv,"Read Mixed B","Read Mixed B",BITTER,COLD,Study1,F,12,30,Test,User,-,,Recall,Recall2,1865,COLD,100,1324,1712,1,1,,1
w10086527,hbnfzfmp5y,Nick_Dissertation_EX2_EP,1,188,2021-09-14T13:08:23-07:00,5.4421122074127,2,Mixed_Stim.csv,READVersionB.csv,"Read Mixed B","Read Mixed B",PARK,HUNGRY,Study1,U,68,19,Test,User,-,,Recall,Recall2,5070,SNAKC,18.181818181818,4342,4869,0,0,,1
w10086527,hbnfzfmp5y,Nick_Dissertation_EX2_EP,1,189,2021-09-14T13:08:26-07:00,2.2390120029449,2,Mixed_Stim.csv,READVersionB.csv,"Read Mixed B","Read Mixed B",,,,,,0,Instruct,User,-,"You have completed this section. Please press Enter.",,Instruct7,1756,,,-1,-1,,,,1
w10086527,hbnfzfmp5y,Nick_Dissertation_EX2_EP,1,190,2021-09-14T13:08:29-07:00,2.9330019950867,2,Mixed_Stim.csv,READVersionB.csv,"Read Mixed B","Read Mixed B",,,,,,0,Instruct,User,-,"The following screen will ask you a few questions abour your experience today. You must complete these questions to receive credit.",,Instruct8,2439,,,-1,-1,,,,1
