Username,ID,ExperimentName,Session,Trial,Date,TimeDif,"Condition Number","Stimuli File","Order File","Condition Description","Condition Notes",Stimuli*Cue,Stimuli*Answer,Stimuli*Shuffle,"Stimuli*Stimuli Notes",Stimuli*Value,Procedure*Item,"Procedure*Trial Type","Procedure*Max Time","Procedure*Min Time",Procedure*Text,"Procedure*Procedure Notes",Procedure*Shuffle,Response*RT,Response*Response,Response*Accuracy,Response*RTfirst,Response*RTlast,Response*strictAcc,Response*lenientAcc,Response*focus,Response*Focus
w10072976,lpy725v89d,Nick_Dissertation_EX2_EP,1,1,2022-02-22T21:16:49+00:00,11.181926965714,1,Mixed_Stim.csv,READVersionA.csv,"Read Mixed A","Read Mixed A",,,,,,0,Instruct,-,10,"Please study each of the following word pairs. Remember that your memory will be tested! Each pair will be displayed on the computer screen and will automatically advance to the next pair. Press ENTER when you are ready to begin.",Initial_Instruct,Instruct1,10990,,,-1,-1,,,,1
w10072976,lpy725v89d,Nick_Dissertation_EX2_EP,1,2,2022-02-22T21:16:58+00:00,8.3310461044312,1,Mixed_Stim.csv,READVersionA.csv,"Read Mixed A","Read Mixed A",TREES,GREEN,BUFFER1,Buffer,1,3,STUDY,8,8,,Study/JOL,BUFFER,8002,,,-1,-1,,,,1
w10072976,lpy725v89d,Nick_Dissertation_EX2_EP,1,3,2022-02-22T21:17:06+00:00,8.1223199367523,1,Mixed_Stim.csv,READVersionA.csv,"Read Mixed A","Read Mixed A",BASEBALL,CATCHER,BUFFER1,Buffer,2,4,STUDY,8,8,,Study/JOL,BUFFER,8002,,,-1,-1,,,,1
w10072976,lpy725v89d,Nick_Dissertation_EX2_EP,1,4,2022-02-22T21:17:14+00:00,8.1258339881897,1,Mixed_Stim.csv,READVersionA.csv,"Read Mixed A","Read Mixed A",PEANUT,BUTTER,BUFFER1,Buffer,3,2,STUDY,8,8,,Study/JOL,BUFFER,8000,,,-1,-1,,,,1
w10072976,lpy725v89d,Nick_Dissertation_EX2_EP,1,5,2022-02-22T21:17:22+00:00,8.1392929553986,1,Mixed_Stim.csv,READVersionA.csv,"Read Mixed A","Read Mixed A",SCARE,HIDE,BUFFER1,Buffer,4,6,STUDY,8,8,,Study/JOL,BUFFER,8001,,,-1,-1,,,,1
w10072976,lpy725v89d,Nick_Dissertation_EX2_EP,1,6,2022-02-22T21:17:30+00:00,8.1219890117645,1,Mixed_Stim.csv,READVersionA.csv,"Read Mixed A","Read Mixed A",SPACE,JAM,BUFFER1,Buffer,5,5,STUDY,8,8,,Study/JOL,BUFFER,8001,,,-1,-1,,,,1
w10072976,lpy725v89d,Nick_Dissertation_EX2_EP,1,7,2022-02-22T21:17:38+00:00,8.1394469738007,1,Mixed_Stim.csv,READVersionA.csv,"Read Mixed A","Read Mixed A",CHISEL,HAMMER,Study1,F,9,19,STUDY,8,8,,Study/JOL,"Study Phase",8000,,,-1,-1,,,,1
w10072976,lpy725v89d,Nick_Dissertation_EX2_EP,1,8,2022-02-22T21:17:46+00:00,8.1363182067871,1,Mixed_Stim.csv,READVersionA.csv,"Read Mixed A","Read Mixed A",HIDE,SICK,Study1,U,84,35,STUDY,8,8,,Study/JOL,"Study Phase",8004,,,-1,-1,,,,1
w10072976,lpy725v89d,Nick_Dissertation_EX2_EP,1,9,2022-02-22T21:17:55+00:00,8.1662998199463,1,Mixed_Stim.csv,READVersionA.csv,"Read Mixed A","Read Mixed A",PAW,DOG,Study1,F,15,32,STUDY,8,8,,Study/JOL,"Study Phase",8002,,,-1,-1,,,,1
w10072976,lpy725v89d,Nick_Dissertation_EX2_EP,1,10,2022-02-22T21:18:03+00:00,8.1520750522614,1,Mixed_Stim.csv,READVersionA.csv,"Read Mixed A","Read Mixed A",WAGE,MONEY,Study1,F,8,40,STUDY,8,8,,Study/JOL,"Study Phase",8000,,,-1,-1,,,,1
w10072976,lpy725v89d,Nick_Dissertation_EX2_EP,1,11,2022-02-22T21:18:11+00:00,8.1333479881287,1,Mixed_Stim.csv,READVersionA.csv,"Read Mixed A","Read Mixed A",SOON,BELT,Study1,U,70,11,STUDY,8,8,,Study/JOL,"Study Phase",8002,,,-1,-1,,,,1
w10072976,lpy725v89d,Nick_Dissertation_EX2_EP,1,12,2022-02-22T21:18:19+00:00,8.1277251243591,1,Mixed_Stim.csv,READVersionA.csv,"Read Mixed A","Read Mixed A",DELINQUENT,BAD,Study1,F,6,36,STUDY,8,8,,Study/JOL,"Study Phase",8001,,,-1,-1,,,,1
w10072976,lpy725v89d,Nick_Dissertation_EX2_EP,1,13,2022-02-22T21:18:27+00:00,8.1318728923798,1,Mixed_Stim.csv,READVersionA.csv,"Read Mixed A","Read Mixed A",DEATH,BUSINESS,Study1,U,72,12,STUDY,8,8,,Study/JOL,"Study Phase",8002,,,-1,-1,,,,1
w10072976,lpy725v89d,Nick_Dissertation_EX2_EP,1,14,2022-02-22T21:18:35+00:00,8.1267080307007,1,Mixed_Stim.csv,READVersionA.csv,"Read Mixed A","Read Mixed A",HYGIENE,CLEAN,Study1,F,17,9,STUDY,8,8,,Study/JOL,"Study Phase",8001,,,-1,-1,,,,1
w10072976,lpy725v89d,Nick_Dissertation_EX2_EP,1,15,2022-02-22T21:18:43+00:00,8.12508893013,1,Mixed_Stim.csv,READVersionA.csv,"Read Mixed A","Read Mixed A",TUNA,FISH,Study1,F,25,20,STUDY,8,8,,Study/JOL,"Study Phase",8001,,,-1,-1,,,,1
w10072976,lpy725v89d,Nick_Dissertation_EX2_EP,1,16,2022-02-22T21:18:52+00:00,8.1400871276855,1,Mixed_Stim.csv,READVersionA.csv,"Read Mixed A","Read Mixed A",FIX,HAND,Study1,U,75,45,STUDY,8,8,,Study/JOL,"Study Phase",8004,,,-1,-1,,,,1
w10072976,lpy725v89d,Nick_Dissertation_EX2_EP,1,17,2022-02-22T21:19:00+00:00,8.1197488307953,1,Mixed_Stim.csv,READVersionA.csv,"Read Mixed A","Read Mixed A",ARTERY,BRONZE,Study1,U,74,13,STUDY,8,8,,Study/JOL,"Study Phase",8000,,,-1,-1,,,,1
w10072976,lpy725v89d,Nick_Dissertation_EX2_EP,1,18,2022-02-22T21:19:08+00:00,8.1237502098083,1,Mixed_Stim.csv,READVersionA.csv,"Read Mixed A","Read Mixed A",LIFT,WOMAN,Study1,U,69,21,STUDY,8,8,,Study/JOL,"Study Phase",8002,,,-1,-1,,,,1
w10072976,lpy725v89d,Nick_Dissertation_EX2_EP,1,19,2022-02-22T21:19:16+00:00,8.12082695961,1,Mixed_Stim.csv,READVersionA.csv,"Read Mixed A","Read Mixed A",ART,LION,Study1,U,79,26,STUDY,8,8,,Study/JOL,"Study Phase",8002,,,-1,-1,,,,1
w10072976,lpy725v89d,Nick_Dissertation_EX2_EP,1,20,2022-02-22T21:19:24+00:00,8.2365789413452,1,Mixed_Stim.csv,READVersionA.csv,"Read Mixed A","Read Mixed A",VALLEY,ADD,Study1,U,82,46,STUDY,8,8,,Study/JOL,"Study Phase",8002,,,-1,-1,,,,1
w10072976,lpy725v89d,Nick_Dissertation_EX2_EP,1,21,2022-02-22T21:19:32+00:00,8.2472660541534,1,Mixed_Stim.csv,READVersionA.csv,"Read Mixed A","Read Mixed A",KING,VASE,Study1,U,85,10,STUDY,8,8,,Study/JOL,"Study Phase",8002,,,-1,-1,,,,1
w10072976,lpy725v89d,Nick_Dissertation_EX2_EP,1,22,2022-02-22T21:19:41+00:00,8.1340048313141,1,Mixed_Stim.csv,READVersionA.csv,"Read Mixed A","Read Mixed A",DISCOVER,FLOOR,Study1,U,71,29,STUDY,8,8,,Study/JOL,"Study Phase",8002,,,-1,-1,,,,1
w10072976,lpy725v89d,Nick_Dissertation_EX2_EP,1,23,2022-02-22T21:19:49+00:00,8.1242921352386,1,Mixed_Stim.csv,READVersionA.csv,"Read Mixed A","Read Mixed A",ROOT,PLANT,Study1,F,13,23,STUDY,8,8,,Study/JOL,"Study Phase",8003,,,-1,-1,,,,1
w10072976,lpy725v89d,Nick_Dissertation_EX2_EP,1,24,2022-02-22T21:19:57+00:00,8.1281659603119,1,Mixed_Stim.csv,READVersionA.csv,"Read Mixed A","Read Mixed A",WAY,OUT,Study1,F,16,28,STUDY,8,8,,Study/JOL,"Study Phase",8000,,,-1,-1,,,,1
w10072976,lpy725v89d,Nick_Dissertation_EX2_EP,1,25,2022-02-22T21:20:05+00:00,8.1334619522095,1,Mixed_Stim.csv,READVersionA.csv,"Read Mixed A","Read Mixed A",SUGAR,RIDDLE,Study1,U,81,34,STUDY,8,8,,Study/JOL,"Study Phase",8001,,,-1,-1,,,,1
w10072976,lpy725v89d,Nick_Dissertation_EX2_EP,1,26,2022-02-22T21:20:13+00:00,8.1500821113586,1,Mixed_Stim.csv,READVersionA.csv,"Read Mixed A","Read Mixed A",DISCUSSION,TALK,Study1,F,21,27,STUDY,8,8,,Study/JOL,"Study Phase",8002,,,-1,-1,,,,1
w10072976,lpy725v89d,Nick_Dissertation_EX2_EP,1,27,2022-02-22T21:20:21+00:00,8.1245639324188,1,Mixed_Stim.csv,READVersionA.csv,"Read Mixed A","Read Mixed A",EDITOR,NEWS,Study1,F,10,25,STUDY,8,8,,Study/JOL,"Study Phase",8001,,,-1,-1,,,,1
w10072976,lpy725v89d,Nick_Dissertation_EX2_EP,1,28,2022-02-22T21:20:29+00:00,8.1310849189758,1,Mixed_Stim.csv,READVersionA.csv,"Read Mixed A","Read Mixed A",SWAN,BIRD,Study1,F,14,15,STUDY,8,8,,Study/JOL,"Study Phase",8001,,,-1,-1,,,,1
w10072976,lpy725v89d,Nick_Dissertation_EX2_EP,1,29,2022-02-22T21:20:37+00:00,8.119246006012,1,Mixed_Stim.csv,READVersionA.csv,"Read Mixed A","Read Mixed A",STRONG,ACCIDENT,Study1,U,80,41,STUDY,8,8,,Study/JOL,"Study Phase",8001,,,-1,-1,,,,1
w10072976,lpy725v89d,Nick_Dissertation_EX2_EP,1,30,2022-02-22T21:20:46+00:00,8.1326160430908,1,Mixed_Stim.csv,READVersionA.csv,"Read Mixed A","Read Mixed A",DEBATE,SIGHT,Study1,U,73,37,STUDY,8,8,,Study/JOL,"Study Phase",8001,,,-1,-1,,,,1
w10072976,lpy725v89d,Nick_Dissertation_EX2_EP,1,31,2022-02-22T21:20:54+00:00,8.1542589664459,1,Mixed_Stim.csv,READVersionA.csv,"Read Mixed A","Read Mixed A",CASH,WOULD,Study1,U,83,14,STUDY,8,8,,Study/JOL,"Study Phase",8002,,,-1,-1,,,,1
w10072976,lpy725v89d,Nick_Dissertation_EX2_EP,1,32,2022-02-22T21:21:02+00:00,8.1236050128937,1,Mixed_Stim.csv,READVersionA.csv,"Read Mixed A","Read Mixed A",DIGESTION,STOMACH,Study1,F,7,31,STUDY,8,8,,Study/JOL,"Study Phase",8003,,,-1,-1,,,,1
w10072976,lpy725v89d,Nick_Dissertation_EX2_EP,1,33,2022-02-22T21:21:10+00:00,8.2100269794464,1,Mixed_Stim.csv,READVersionA.csv,"Read Mixed A","Read Mixed A",PUSHER,CLUTTER,Study1,U,66,42,STUDY,8,8,,Study/JOL,"Study Phase",8001,,,-1,-1,,,,1
w10072976,lpy725v89d,Nick_Dissertation_EX2_EP,1,34,2022-02-22T21:21:18+00:00,8.1259210109711,1,Mixed_Stim.csv,READVersionA.csv,"Read Mixed A","Read Mixed A",HAPPY,CAR,Study1,U,77,43,STUDY,8,8,,Study/JOL,"Study Phase",8000,,,-1,-1,,,,1
w10072976,lpy725v89d,Nick_Dissertation_EX2_EP,1,35,2022-02-22T21:21:26+00:00,8.1503441333771,1,Mixed_Stim.csv,READVersionA.csv,"Read Mixed A","Read Mixed A",GEOLOGY,ROCK,Study1,F,19,44,STUDY,8,8,,Study/JOL,"Study Phase",8001,,,-1,-1,,,,1
w10072976,lpy725v89d,Nick_Dissertation_EX2_EP,1,36,2022-02-22T21:21:35+00:00,8.1261639595032,1,Mixed_Stim.csv,READVersionA.csv,"Read Mixed A","Read Mixed A",DIETARY,SACKING,Study1,U,67,33,STUDY,8,8,,Study/JOL,"Study Phase",8000,,,-1,-1,,,,1
w10072976,lpy725v89d,Nick_Dissertation_EX2_EP,1,37,2022-02-22T21:21:43+00:00,8.1244969367981,1,Mixed_Stim.csv,READVersionA.csv,"Read Mixed A","Read Mixed A",BITTER,COLD,Study1,F,12,18,STUDY,8,8,,Study/JOL,"Study Phase",8002,,,-1,-1,,,,1
w10072976,lpy725v89d,Nick_Dissertation_EX2_EP,1,38,2022-02-22T21:21:51+00:00,8.1918530464172,1,Mixed_Stim.csv,READVersionA.csv,"Read Mixed A","Read Mixed A",HERD,COW,Study1,F,22,8,STUDY,8,8,,Study/JOL,"Study Phase",8003,,,-1,-1,,,,1
w10072976,lpy725v89d,Nick_Dissertation_EX2_EP,1,39,2022-02-22T21:21:59+00:00,8.1237359046936,1,Mixed_Stim.csv,READVersionA.csv,"Read Mixed A","Read Mixed A",ORCHID,FLOWER,Study1,F,24,39,STUDY,8,8,,Study/JOL,"Study Phase",8001,,,-1,-1,,,,1
w10072976,lpy725v89d,Nick_Dissertation_EX2_EP,1,40,2022-02-22T21:22:07+00:00,8.1301829814911,1,Mixed_Stim.csv,READVersionA.csv,"Read Mixed A","Read Mixed A",PARK,HUNGRY,Study1,U,68,24,STUDY,8,8,,Study/JOL,"Study Phase",8002,,,-1,-1,,,,1
w10072976,lpy725v89d,Nick_Dissertation_EX2_EP,1,41,2022-02-22T21:22:15+00:00,8.1275460720062,1,Mixed_Stim.csv,READVersionA.csv,"Read Mixed A","Read Mixed A",ALLOW,TUCK,Study1,U,78,30,STUDY,8,8,,Study/JOL,"Study Phase",8001,,,-1,-1,,,,1
w10072976,lpy725v89d,Nick_Dissertation_EX2_EP,1,42,2022-02-22T21:22:23+00:00,8.1343169212341,1,Mixed_Stim.csv,READVersionA.csv,"Read Mixed A","Read Mixed A",CREDIT,CARD,Study1,F,23,38,STUDY,8,8,,Study/JOL,"Study Phase",8000,,,-1,-1,,,,1
w10072976,lpy725v89d,Nick_Dissertation_EX2_EP,1,43,2022-02-22T21:22:31+00:00,8.1234760284424,1,Mixed_Stim.csv,READVersionA.csv,"Read Mixed A","Read Mixed A",BRIDGE,WATER,Study1,F,18,22,STUDY,8,8,,Study/JOL,"Study Phase",8001,,,-1,-1,,,,1
w10072976,lpy725v89d,Nick_Dissertation_EX2_EP,1,44,2022-02-22T21:22:40+00:00,8.1236569881439,1,Mixed_Stim.csv,READVersionA.csv,"Read Mixed A","Read Mixed A",MACHINE,POSITION,Study1,U,76,17,STUDY,8,8,,Study/JOL,"Study Phase",8002,,,-1,-1,,,,1
w10072976,lpy725v89d,Nick_Dissertation_EX2_EP,1,45,2022-02-22T21:22:48+00:00,8.1338841915131,1,Mixed_Stim.csv,READVersionA.csv,"Read Mixed A","Read Mixed A",HORNET,STING,Study1,F,11,7,STUDY,8,8,,Study/JOL,"Study Phase",8001,,,-1,-1,,,,1
w10072976,lpy725v89d,Nick_Dissertation_EX2_EP,1,46,2022-02-22T21:22:56+00:00,8.1435358524323,1,Mixed_Stim.csv,READVersionA.csv,"Read Mixed A","Read Mixed A",REVOLUTION,WAR,Study1,F,20,16,STUDY,8,8,,Study/JOL,"Study Phase",8003,,,-1,-1,,,,1
w10072976,lpy725v89d,Nick_Dissertation_EX2_EP,1,47,2022-02-22T21:23:04+00:00,8.1413741111755,1,Mixed_Stim.csv,READVersionA.csv,"Read Mixed A","Read Mixed A",MALT,CHOCOLATE,BUFFER2,Buffer,88,48,STUDY,8,8,,Study/JOL,BUFFER2,8001,,,-1,-1,,,,1
w10072976,lpy725v89d,Nick_Dissertation_EX2_EP,1,48,2022-02-22T21:23:12+00:00,8.1257238388062,1,Mixed_Stim.csv,READVersionA.csv,"Read Mixed A","Read Mixed A",SHERRIF,POLICE,BUFFER2,Buffer,87,49,STUDY,8,8,,Study/JOL,BUFFER2,8000,,,-1,-1,,,,1
w10072976,lpy725v89d,Nick_Dissertation_EX2_EP,1,49,2022-02-22T21:23:20+00:00,8.1217231750488,1,Mixed_Stim.csv,READVersionA.csv,"Read Mixed A","Read Mixed A",THING,STUFF,BUFFER2,Buffer,90,51,STUDY,8,8,,Study/JOL,BUFFER2,8001,,,-1,-1,,,,1
w10072976,lpy725v89d,Nick_Dissertation_EX2_EP,1,50,2022-02-22T21:23:28+00:00,8.1239130496979,1,Mixed_Stim.csv,READVersionA.csv,"Read Mixed A","Read Mixed A",GEESE,GOOSE,BUFFER2,Buffer,86,47,STUDY,8,8,,Study/JOL,BUFFER2,8002,,,-1,-1,,,,1
w10072976,lpy725v89d,Nick_Dissertation_EX2_EP,1,51,2022-02-22T21:23:37+00:00,8.1251618862152,1,Mixed_Stim.csv,READVersionA.csv,"Read Mixed A","Read Mixed A",MOON,SPACE,BUFFER2,Buffer,89,50,STUDY,8,8,,Study/JOL,BUFFER2,8002,,,-1,-1,,,,1
w10072976,lpy725v89d,Nick_Dissertation_EX2_EP,1,52,2022-02-22T21:23:39+00:00,2.1993570327759,1,Mixed_Stim.csv,READVersionA.csv,"Read Mixed A","Read Mixed A",,,,,,0,Instruct,User,-,"You have completed this section. Please press Enter.",Filler_Instruction,Instruct2,2067,,,-1,-1,,,,1
w10072976,lpy725v89d,Nick_Dissertation_EX2_EP,1,53,2022-02-22T21:25:39+00:00,120.15875506401,1,Mixed_Stim.csv,READVersionA.csv,"Read Mixed A","Read Mixed A",,,,,,0,FreeRecall,120,120,"Please list the 50 US states in alphabetical order. The task will automatically advance to the next screen after two minutes.",,Filler1,120001,"Alabama, Alaska, Arizona, Arkansas, California, Colorado, Connecticut, Deleware, Florida, Georgia",0,10044,117733,0,0,,1
w10072976,lpy725v89d,Nick_Dissertation_EX2_EP,1,54,2022-02-22T21:25:52+00:00,13.013652801514,1,Mixed_Stim.csv,READVersionA.csv,"Read Mixed A","Read Mixed A",,,,,,0,Instruct,-,10,"You will now be presented with the first word from each of the previously studied item pairs. Please type the missing word. If you do not know the word, you may guess or press Enter to skip forward to the next pair.",,Instruct3,12868,,,-1,-1,,,,1
w10072976,lpy725v89d,Nick_Dissertation_EX2_EP,1,55,2022-02-22T21:25:56+00:00,4.2029461860657,1,Mixed_Stim.csv,READVersionA.csv,"Read Mixed A","Read Mixed A",LIFT,WOMAN,Study1,U,69,21,Test,User,-,,Recall,Recall1,4061,woman,100,2514,2935,1,1,,1
w10072976,lpy725v89d,Nick_Dissertation_EX2_EP,1,56,2022-02-22T21:26:05+00:00,9.2916359901428,1,Mixed_Stim.csv,READVersionA.csv,"Read Mixed A","Read Mixed A",STRONG,ACCIDENT,Study1,U,80,41,Test,User,-,,Recall,Recall1,9105,accident,100,6422,7960,1,1,,1
w10072976,lpy725v89d,Nick_Dissertation_EX2_EP,1,57,2022-02-22T21:26:11+00:00,5.2993929386139,1,Mixed_Stim.csv,READVersionA.csv,"Read Mixed A","Read Mixed A",DIGESTION,STOMACH,Study1,F,7,31,Test,User,-,,Recall,Recall1,5172,stomach,100,2357,4390,1,1,,1
w10072976,lpy725v89d,Nick_Dissertation_EX2_EP,1,58,2022-02-22T21:26:14+00:00,3.5437440872192,1,Mixed_Stim.csv,READVersionA.csv,"Read Mixed A","Read Mixed A",PARK,HUNGRY,Study1,U,68,24,Test,User,-,,Recall,Recall1,3420,hungary,92.307692307692,1657,2640,0,1,,1
w10072976,lpy725v89d,Nick_Dissertation_EX2_EP,1,59,2022-02-22T21:26:28+00:00,14.27129483223,1,Mixed_Stim.csv,READVersionA.csv,"Read Mixed A","Read Mixed A",CASH,WOULD,Study1,U,83,14,Test,User,-,,Recall,Recall1,14137,money,20,1169,1605,0,0,,1
w10072976,lpy725v89d,Nick_Dissertation_EX2_EP,1,60,2022-02-22T21:26:31+00:00,2.8591041564941,1,Mixed_Stim.csv,READVersionA.csv,"Read Mixed A","Read Mixed A",DISCUSSION,TALK,Study1,F,21,27,Test,User,-,,Recall,Recall1,2726,talk,100,1517,1958,1,1,,1
w10072976,lpy725v89d,Nick_Dissertation_EX2_EP,1,61,2022-02-22T21:26:39+00:00,7.7979578971863,1,Mixed_Stim.csv,READVersionA.csv,"Read Mixed A","Read Mixed A",KING,VASE,Study1,U,85,10,Test,User,-,,Recall,Recall1,7677,vase,100,5767,7038,1,1,,1
w10072976,lpy725v89d,Nick_Dissertation_EX2_EP,1,62,2022-02-22T21:26:44+00:00,4.627377986908,1,Mixed_Stim.csv,READVersionA.csv,"Read Mixed A","Read Mixed A",SWAN,BIRD,Study1,F,14,15,Test,User,-,,Recall,Recall1,4498,bird,100,3964,4327,1,1,,1
w10072976,lpy725v89d,Nick_Dissertation_EX2_EP,1,63,2022-02-22T21:26:46+00:00,2.4210109710693,1,Mixed_Stim.csv,READVersionA.csv,"Read Mixed A","Read Mixed A",HERD,COW,Study1,F,22,8,Test,User,-,,Recall,Recall1,1595,cow,100,1233,1425,1,1,,1
w10072976,lpy725v89d,Nick_Dissertation_EX2_EP,1,64,2022-02-22T21:26:51+00:00,4.3139970302582,1,Mixed_Stim.csv,READVersionA.csv,"Read Mixed A","Read Mixed A",PUSHER,CLUTTER,Study1,U,66,42,Test,User,-,,Recall,Recall1,4188,clutter,100,3195,4043,1,1,,1
w10072976,lpy725v89d,Nick_Dissertation_EX2_EP,1,65,2022-02-22T21:26:54+00:00,3.1731340885162,1,Mixed_Stim.csv,READVersionA.csv,"Read Mixed A","Read Mixed A",WAY,OUT,Study1,F,16,28,Test,User,-,,Recall,Recall1,3047,put,66.666666666667,2689,2901,0,0,,1
w10072976,lpy725v89d,Nick_Dissertation_EX2_EP,1,66,2022-02-22T21:27:03+00:00,9.6566259860992,1,Mixed_Stim.csv,READVersionA.csv,"Read Mixed A","Read Mixed A",ROOT,PLANT,Study1,F,13,23,Test,User,-,,Recall,Recall1,9511,plant,100,8774,9304,1,1,,1
w10072976,lpy725v89d,Nick_Dissertation_EX2_EP,1,67,2022-02-22T21:27:24+00:00,20.595175981522,1,Mixed_Stim.csv,READVersionA.csv,"Read Mixed A","Read Mixed A",ARTERY,BRONZE,Study1,U,74,13,Test,User,-,,Recall,Recall1,20453,blood,36.363636363636,19783,20321,0,0,,1
w10072976,lpy725v89d,Nick_Dissertation_EX2_EP,1,68,2022-02-22T21:27:29+00:00,5.1780240535736,1,Mixed_Stim.csv,READVersionA.csv,"Read Mixed A","Read Mixed A",DISCOVER,FLOOR,Study1,U,71,29,Test,User,-,,Recall,Recall1,5051,floor,100,4385,4850,1,1,,1
w10072976,lpy725v89d,Nick_Dissertation_EX2_EP,1,69,2022-02-22T21:27:31+00:00,1.6979999542236,1,Mixed_Stim.csv,READVersionA.csv,"Read Mixed A","Read Mixed A",TUNA,FISH,Study1,F,25,20,Test,User,-,,Recall,Recall1,1551,fish,100,1030,1298,1,1,,1
w10072976,lpy725v89d,Nick_Dissertation_EX2_EP,1,70,2022-02-22T21:27:45+00:00,14.604542016983,1,Mixed_Stim.csv,READVersionA.csv,"Read Mixed A","Read Mixed A",HAPPY,CAR,Study1,U,77,43,Test,User,-,,Recall,Recall1,14465,car,100,13382,14325,1,1,,1
w10072976,lpy725v89d,Nick_Dissertation_EX2_EP,1,71,2022-02-22T21:27:50+00:00,4.7446210384369,1,Mixed_Stim.csv,READVersionA.csv,"Read Mixed A","Read Mixed A",WAGE,MONEY,Study1,F,8,40,Test,User,-,,Recall,Recall1,4602,money,100,3703,4242,1,1,,1
w10072976,lpy725v89d,Nick_Dissertation_EX2_EP,1,72,2022-02-22T21:27:58+00:00,8.1981217861176,1,Mixed_Stim.csv,READVersionA.csv,"Read Mixed A","Read Mixed A",HIDE,SICK,Study1,U,84,35,Test,User,-,,Recall,Recall1,8009,sick,100,7059,7767,1,1,,1
w10072976,lpy725v89d,Nick_Dissertation_EX2_EP,1,73,2022-02-22T21:28:00+00:00,1.8858442306519,1,Mixed_Stim.csv,READVersionA.csv,"Read Mixed A","Read Mixed A",DELINQUENT,BAD,Study1,F,6,36,Test,User,-,,Recall,Recall1,1750,bad,100,1303,1650,1,1,,1
w10072976,lpy725v89d,Nick_Dissertation_EX2_EP,1,74,2022-02-22T21:28:04+00:00,3.7985339164734,1,Mixed_Stim.csv,READVersionA.csv,"Read Mixed A","Read Mixed A",DEBATE,SIGHT,Study1,U,73,37,Test,User,-,,Recall,Recall1,3655,argue,20,2686,3405,0,0,,1
w10072976,lpy725v89d,Nick_Dissertation_EX2_EP,1,75,2022-02-22T21:28:14+00:00,9.7960619926453,1,Mixed_Stim.csv,READVersionA.csv,"Read Mixed A","Read Mixed A",VALLEY,ADD,Study1,U,82,46,Test,User,-,,Recall,Recall1,9668,hill,0,9016,9472,0,0,,1
w10072976,lpy725v89d,Nick_Dissertation_EX2_EP,1,76,2022-02-22T21:28:18+00:00,4.5362679958344,1,Mixed_Stim.csv,READVersionA.csv,"Read Mixed A","Read Mixed A",ART,LION,Study1,U,79,26,Test,User,-,,Recall,Recall1,4389,lion,100,3699,4132,1,1,,1
w10072976,lpy725v89d,Nick_Dissertation_EX2_EP,1,77,2022-02-22T21:28:32+00:00,13.769309997559,1,Mixed_Stim.csv,READVersionA.csv,"Read Mixed A","Read Mixed A",SOON,BELT,Study1,U,70,11,Test,User,-,,Recall,Recall1,13622,time,25,13103,13473,0,0,,1
w10072976,lpy725v89d,Nick_Dissertation_EX2_EP,1,78,2022-02-22T21:28:36+00:00,3.9900939464569,1,Mixed_Stim.csv,READVersionA.csv,"Read Mixed A","Read Mixed A",BITTER,COLD,Study1,F,12,18,Test,User,-,,Recall,Recall1,3852,cold,100,2778,3737,1,1,,1
w10072976,lpy725v89d,Nick_Dissertation_EX2_EP,1,79,2022-02-22T21:28:39+00:00,2.5026960372925,1,Mixed_Stim.csv,READVersionA.csv,"Read Mixed A","Read Mixed A",HYGIENE,CLEAN,Study1,F,17,9,Test,User,-,,Recall,Recall1,2373,clean,100,1599,2093,1,1,,1
w10072976,lpy725v89d,Nick_Dissertation_EX2_EP,1,80,2022-02-22T21:28:42+00:00,3.849524974823,1,Mixed_Stim.csv,READVersionA.csv,"Read Mixed A","Read Mixed A",ALLOW,TUCK,Study1,U,78,30,Test,User,-,,Recall,Recall1,3718,tuck,100,3181,3514,1,1,,1
w10072976,lpy725v89d,Nick_Dissertation_EX2_EP,1,81,2022-02-22T21:28:44+00:00,1.699068069458,1,Mixed_Stim.csv,READVersionA.csv,"Read Mixed A","Read Mixed A",PAW,DOG,Study1,F,15,32,Test,User,-,,Recall,Recall1,1573,dog,100,1217,1427,1,1,,1
w10072976,lpy725v89d,Nick_Dissertation_EX2_EP,1,82,2022-02-22T21:28:46+00:00,2.0278339385986,1,Mixed_Stim.csv,READVersionA.csv,"Read Mixed A","Read Mixed A",CHISEL,HAMMER,Study1,F,9,19,Test,User,-,,Recall,Recall1,1908,hammer,100,1178,1738,1,1,,1
w10072976,lpy725v89d,Nick_Dissertation_EX2_EP,1,83,2022-02-22T21:28:51+00:00,4.5786440372467,1,Mixed_Stim.csv,READVersionA.csv,"Read Mixed A","Read Mixed A",DIETARY,SACKING,Study1,U,67,33,Test,User,-,,Recall,Recall1,4450,sacking,100,3393,4213,1,1,,1
w10072976,lpy725v89d,Nick_Dissertation_EX2_EP,1,84,2022-02-22T21:28:57+00:00,6.0547850131989,1,Mixed_Stim.csv,READVersionA.csv,"Read Mixed A","Read Mixed A",FIX,HAND,Study1,U,75,45,Test,User,-,,Recall,Recall1,5919,hand,100,5438,5761,1,1,,1
w10072976,lpy725v89d,Nick_Dissertation_EX2_EP,1,85,2022-02-22T21:29:03+00:00,6.0412938594818,1,Mixed_Stim.csv,READVersionA.csv,"Read Mixed A","Read Mixed A",SUGAR,RIDDLE,Study1,U,81,34,Test,User,-,,Recall,Recall1,5896,riddle,100,4959,5765,1,1,,1
w10072976,lpy725v89d,Nick_Dissertation_EX2_EP,1,86,2022-02-22T21:29:05+00:00,1.7015101909637,1,Mixed_Stim.csv,READVersionA.csv,"Read Mixed A","Read Mixed A",GEOLOGY,ROCK,Study1,F,19,44,Test,User,-,,Recall,Recall1,1523,rock,100,983,1313,1,1,,1
w10072976,lpy725v89d,Nick_Dissertation_EX2_EP,1,87,2022-02-22T21:29:08+00:00,3.8820819854736,1,Mixed_Stim.csv,READVersionA.csv,"Read Mixed A","Read Mixed A",MACHINE,POSITION,Study1,U,76,17,Test,User,-,,Recall,Recall1,3757,work,16.666666666667,3215,3513,0,0,,1
w10072976,lpy725v89d,Nick_Dissertation_EX2_EP,1,88,2022-02-22T21:29:19+00:00,10.641611814499,1,Mixed_Stim.csv,READVersionA.csv,"Read Mixed A","Read Mixed A",HORNET,STING,Study1,F,11,7,Test,User,-,,Recall,Recall1,10481,sting,100,9806,10259,1,1,,1
w10072976,lpy725v89d,Nick_Dissertation_EX2_EP,1,89,2022-02-22T21:29:29+00:00,10.055700063705,1,Mixed_Stim.csv,READVersionA.csv,"Read Mixed A","Read Mixed A",DEATH,BUSINESS,Study1,U,72,12,Test,User,-,,Recall,Recall1,9925,business,100,8960,9775,1,1,,1
w10072976,lpy725v89d,Nick_Dissertation_EX2_EP,1,90,2022-02-22T21:29:31+00:00,2.1009271144867,1,Mixed_Stim.csv,READVersionA.csv,"Read Mixed A","Read Mixed A",BRIDGE,WATER,Study1,F,18,22,Test,User,-,,Recall,Recall1,1971,water,100,1293,1882,1,1,,1
w10072976,lpy725v89d,Nick_Dissertation_EX2_EP,1,91,2022-02-22T21:29:38+00:00,6.6009440422058,1,Mixed_Stim.csv,READVersionA.csv,"Read Mixed A","Read Mixed A",REVOLUTION,WAR,Study1,F,20,16,Test,User,-,,Recall,Recall1,6474,war,100,5842,6243,1,1,,1
w10072976,lpy725v89d,Nick_Dissertation_EX2_EP,1,92,2022-02-22T21:29:42+00:00,3.6665978431702,1,Mixed_Stim.csv,READVersionA.csv,"Read Mixed A","Read Mixed A",EDITOR,NEWS,Study1,F,10,25,Test,User,-,,Recall,Recall1,3525,paper,22.222222222222,2002,3397,0,0,,1
w10072976,lpy725v89d,Nick_Dissertation_EX2_EP,1,93,2022-02-22T21:29:44+00:00,2.0180749893188,1,Mixed_Stim.csv,READVersionA.csv,"Read Mixed A","Read Mixed A",ORCHID,FLOWER,Study1,F,24,39,Test,User,-,,Recall,Recall1,1881,flower,100,1085,1756,1,1,,1
w10072976,lpy725v89d,Nick_Dissertation_EX2_EP,1,94,2022-02-22T21:29:45+00:00,1.8158891201019,1,Mixed_Stim.csv,READVersionA.csv,"Read Mixed A","Read Mixed A",CREDIT,CARD,Study1,F,23,38,Test,User,-,,Recall,Recall1,1678,card,100,910,1532,1,1,,1
w10072976,lpy725v89d,Nick_Dissertation_EX2_EP,1,95,2022-02-22T21:29:56+00:00,10.707344055176,1,Mixed_Stim.csv,READVersionA.csv,"Read Mixed A","Read Mixed A",,,,,,0,Instruct,-,10,"You will now be presented with a new set of word pairs. Please study each pair. Remember that your memory will be tested! Each pair will be displayed on the computer screen and will automatically advance to the next pair. Press ENTER when you are ready to begin.",Initial_Instruct,Instruct4,10583,,,-1,-1,,,,1
w10072976,lpy725v89d,Nick_Dissertation_EX2_EP,1,96,2022-02-22T21:30:04+00:00,8.1460909843445,1,Mixed_Stim.csv,READVersionA.csv,"Read Mixed A","Read Mixed A",SHRIMP,FISH,BUFFER3,Buffer,93,54,STUDY,8,8,,Study/JOL,BUFFER3,8003,,,-1,-1,,,,1
w10072976,lpy725v89d,Nick_Dissertation_EX2_EP,1,97,2022-02-22T21:30:12+00:00,8.1501698493958,1,Mixed_Stim.csv,READVersionA.csv,"Read Mixed A","Read Mixed A",CAMP,ADVENTURE,BUFFER3,Buffer,95,56,STUDY,8,8,,Study/JOL,BUFFER3,8001,,,-1,-1,,,,1
w10072976,lpy725v89d,Nick_Dissertation_EX2_EP,1,98,2022-02-22T21:30:21+00:00,8.1465520858765,1,Mixed_Stim.csv,READVersionA.csv,"Read Mixed A","Read Mixed A",ICE,FROZEN,BUFFER3,Buffer,94,55,STUDY,8,8,,Study/JOL,BUFFER3,8002,,,-1,-1,,,,1
w10072976,lpy725v89d,Nick_Dissertation_EX2_EP,1,99,2022-02-22T21:30:29+00:00,8.1245379447937,1,Mixed_Stim.csv,READVersionA.csv,"Read Mixed A","Read Mixed A",NOODLE,STRING,BUFFER3,Buffer,92,53,STUDY,8,8,,Study/JOL,BUFFER3,8001,,,-1,-1,,,,1
w10072976,lpy725v89d,Nick_Dissertation_EX2_EP,1,100,2022-02-22T21:30:37+00:00,8.1277160644531,1,Mixed_Stim.csv,READVersionA.csv,"Read Mixed A","Read Mixed A",CARROT,POTATO,BUFFER3,Buffer,91,52,STUDY,8,8,,Study/JOL,BUFFER3,8002,,,-1,-1,,,,1
w10072976,lpy725v89d,Nick_Dissertation_EX2_EP,1,101,2022-02-22T21:30:45+00:00,8.1299300193787,1,Mixed_Stim.csv,READVersionA.csv,"Read Mixed A","Read Mixed A",INCENSE,SMELL,Study2,F,110,66,STUDY,8,8,,Study/JOL,"Study Phase2",8002,,,-1,-1,,,,1
w10072976,lpy725v89d,Nick_Dissertation_EX2_EP,1,102,2022-02-22T21:30:53+00:00,8.132789850235,1,Mixed_Stim.csv,READVersionA.csv,"Read Mixed A","Read Mixed A",NAME,HATE,Study2,U,167,92,STUDY,8,8,,Study/JOL,"Study Phase2",8002,,,-1,-1,,,,1
w10072976,lpy725v89d,Nick_Dissertation_EX2_EP,1,103,2022-02-22T21:31:01+00:00,8.1457381248474,1,Mixed_Stim.csv,READVersionA.csv,"Read Mixed A","Read Mixed A",AFFECTION,LOVE,Study2,F,115,77,STUDY,8,8,,Study/JOL,"Study Phase2",8002,,,-1,-1,,,,1
w10072976,lpy725v89d,Nick_Dissertation_EX2_EP,1,104,2022-02-22T21:31:09+00:00,8.1277799606323,1,Mixed_Stim.csv,READVersionA.csv,"Read Mixed A","Read Mixed A",CHOP,CUT,Study2,F,107,67,STUDY,8,8,,Study/JOL,"Study Phase2",8002,,,-1,-1,,,,1
w10072976,lpy725v89d,Nick_Dissertation_EX2_EP,1,105,2022-02-22T21:31:17+00:00,8.1313879489899,1,Mixed_Stim.csv,READVersionA.csv,"Read Mixed A","Read Mixed A",VEHICLE,CHARM,Study2,U,160,91,STUDY,8,8,,Study/JOL,"Study Phase2",8005,,,-1,-1,,,,1
w10072976,lpy725v89d,Nick_Dissertation_EX2_EP,1,106,2022-02-22T21:31:26+00:00,8.1496231555939,1,Mixed_Stim.csv,READVersionA.csv,"Read Mixed A","Read Mixed A",EXTENSION,LONG,Study2,F,96,87,STUDY,8,8,,Study/JOL,"Study Phase2",8006,,,-1,-1,,,,1
w10072976,lpy725v89d,Nick_Dissertation_EX2_EP,1,107,2022-02-22T21:31:34+00:00,8.1390488147736,1,Mixed_Stim.csv,READVersionA.csv,"Read Mixed A","Read Mixed A",JUSTICE,MAROON,Study2,U,156,72,STUDY,8,8,,Study/JOL,"Study Phase2",8001,,,-1,-1,,,,1
w10072976,lpy725v89d,Nick_Dissertation_EX2_EP,1,108,2022-02-22T21:31:42+00:00,8.1336750984192,1,Mixed_Stim.csv,READVersionA.csv,"Read Mixed A","Read Mixed A",DINE,EAT,Study2,F,111,57,STUDY,8,8,,Study/JOL,"Study Phase2",8005,,,-1,-1,,,,1
w10072976,lpy725v89d,Nick_Dissertation_EX2_EP,1,109,2022-02-22T21:31:50+00:00,8.1488900184631,1,Mixed_Stim.csv,READVersionA.csv,"Read Mixed A","Read Mixed A",LISTEN,FICTION,Study2,U,164,62,STUDY,8,8,,Study/JOL,"Study Phase2",8005,,,-1,-1,,,,1
w10072976,lpy725v89d,Nick_Dissertation_EX2_EP,1,110,2022-02-22T21:31:58+00:00,8.1944229602814,1,Mixed_Stim.csv,READVersionA.csv,"Read Mixed A","Read Mixed A",MAIN,SCAR,Study2,U,175,82,STUDY,8,8,,Study/JOL,"Study Phase2",8002,,,-1,-1,,,,1
w10072976,lpy725v89d,Nick_Dissertation_EX2_EP,1,111,2022-02-22T21:32:06+00:00,8.1306319236755,1,Mixed_Stim.csv,READVersionA.csv,"Read Mixed A","Read Mixed A",Shell,SHAKE,Study2,U,163,78,STUDY,8,8,,Study/JOL,"Study Phase2",8003,,,-1,-1,,,,1
w10072976,lpy725v89d,Nick_Dissertation_EX2_EP,1,112,2022-02-22T21:32:14+00:00,8.1369881629944,1,Mixed_Stim.csv,READVersionA.csv,"Read Mixed A","Read Mixed A",SHOELACE,TIE,Study2,F,99,95,STUDY,8,8,,Study/JOL,"Study Phase2",8002,,,-1,-1,,,,1
w10072976,lpy725v89d,Nick_Dissertation_EX2_EP,1,113,2022-02-22T21:32:23+00:00,8.1373720169067,1,Mixed_Stim.csv,READVersionA.csv,"Read Mixed A","Read Mixed A",STRETCH,CLOTH,Study2,U,157,63,STUDY,8,8,,Study/JOL,"Study Phase2",8002,,,-1,-1,,,,1
w10072976,lpy725v89d,Nick_Dissertation_EX2_EP,1,114,2022-02-22T21:32:31+00:00,8.1460168361664,1,Mixed_Stim.csv,READVersionA.csv,"Read Mixed A","Read Mixed A",TEMPERATURE,Morning,Study2,U,173,75,STUDY,8,8,,Study/JOL,"Study Phase2",8002,,,-1,-1,,,,0.475
w10072976,lpy725v89d,Nick_Dissertation_EX2_EP,1,115,2022-02-22T21:32:39+00:00,8.1260290145874,1,Mixed_Stim.csv,READVersionA.csv,"Read Mixed A","Read Mixed A",LOAN,SIGN,Study2,U,171,81,STUDY,8,8,,Study/JOL,"Study Phase2",8002,,,-1,-1,,,,1
w10072976,lpy725v89d,Nick_Dissertation_EX2_EP,1,116,2022-02-22T21:32:47+00:00,8.1306531429291,1,Mixed_Stim.csv,READVersionA.csv,"Read Mixed A","Read Mixed A",CLUE,GAME,Study2,F,97,59,STUDY,8,8,,Study/JOL,"Study Phase2",8003,,,-1,-1,,,,1
w10072976,lpy725v89d,Nick_Dissertation_EX2_EP,1,117,2022-02-22T21:32:55+00:00,8.1279850006104,1,Mixed_Stim.csv,READVersionA.csv,"Read Mixed A","Read Mixed A",DOCUMENT,PAPER,Study2,F,109,88,STUDY,8,8,,Study/JOL,"Study Phase2",8001,,,-1,-1,,,,1
w10072976,lpy725v89d,Nick_Dissertation_EX2_EP,1,118,2022-02-22T21:33:03+00:00,8.140478849411,1,Mixed_Stim.csv,READVersionA.csv,"Read Mixed A","Read Mixed A",CHILL,COLD,Study2,F,114,84,STUDY,8,8,,Study/JOL,"Study Phase2",8001,,,-1,-1,,,,1
w10072976,lpy725v89d,Nick_Dissertation_EX2_EP,1,119,2022-02-22T21:33:11+00:00,8.1340711116791,1,Mixed_Stim.csv,READVersionA.csv,"Read Mixed A","Read Mixed A",MAZE,ELECTION,Study2,U,159,64,STUDY,8,8,,Study/JOL,"Study Phase2",8002,,,-1,-1,,,,1
w10072976,lpy725v89d,Nick_Dissertation_EX2_EP,1,120,2022-02-22T21:33:20+00:00,8.1290578842163,1,Mixed_Stim.csv,READVersionA.csv,"Read Mixed A","Read Mixed A",CAKE,CLOTHES,Study2,U,166,65,STUDY,8,8,,Study/JOL,"Study Phase2",8001,,,-1,-1,,,,1
w10072976,lpy725v89d,Nick_Dissertation_EX2_EP,1,121,2022-02-22T21:33:28+00:00,8.1329920291901,1,Mixed_Stim.csv,READVersionA.csv,"Read Mixed A","Read Mixed A",ROOT,PLANT,Study1,F,13,23,STUDY,8,8,,Study/JOL,"Study Phase2",8002,,,-1,-1,,,,1
w10072976,lpy725v89d,Nick_Dissertation_EX2_EP,1,122,2022-02-22T21:33:36+00:00,8.1293001174927,1,Mixed_Stim.csv,READVersionA.csv,"Read Mixed A","Read Mixed A",LEASE,TOIL,Study2,U,170,80,STUDY,8,8,,Study/JOL,"Study Phase2",8002,,,-1,-1,,,,1
w10072976,lpy725v89d,Nick_Dissertation_EX2_EP,1,123,2022-02-22T21:33:44+00:00,8.1552608013153,1,Mixed_Stim.csv,READVersionA.csv,"Read Mixed A","Read Mixed A",CHERRY,RED,Study2,F,104,74,STUDY,8,8,,Study/JOL,"Study Phase2",8003,,,-1,-1,,,,1
w10072976,lpy725v89d,Nick_Dissertation_EX2_EP,1,124,2022-02-22T21:33:52+00:00,8.1326720714569,1,Mixed_Stim.csv,READVersionA.csv,"Read Mixed A","Read Mixed A",MOAT,CLEAR,Study2,U,169,86,STUDY,8,8,,Study/JOL,"Study Phase2",8002,,,-1,-1,,,,1
w10072976,lpy725v89d,Nick_Dissertation_EX2_EP,1,125,2022-02-22T21:34:00+00:00,8.1423001289368,1,Mixed_Stim.csv,READVersionA.csv,"Read Mixed A","Read Mixed A",CRACKLE,ABLE,Study2,U,162,79,STUDY,8,8,,Study/JOL,"Study Phase2",8004,,,-1,-1,,,,1
w10072976,lpy725v89d,Nick_Dissertation_EX2_EP,1,126,2022-02-22T21:34:08+00:00,8.1435649394989,1,Mixed_Stim.csv,READVersionA.csv,"Read Mixed A","Read Mixed A",SCALP,HEAD,Study2,F,105,71,STUDY,8,8,,Study/JOL,"Study Phase2",8001,,,-1,-1,,,,1
w10072976,lpy725v89d,Nick_Dissertation_EX2_EP,1,127,2022-02-22T21:34:17+00:00,8.140832901001,1,Mixed_Stim.csv,READVersionA.csv,"Read Mixed A","Read Mixed A",DETECTIVE,MYSTERY,Study2,F,100,70,STUDY,8,8,,Study/JOL,"Study Phase2",8002,,,-1,-1,,,,1
w10072976,lpy725v89d,Nick_Dissertation_EX2_EP,1,128,2022-02-22T21:34:25+00:00,8.1312639713287,1,Mixed_Stim.csv,READVersionA.csv,"Read Mixed A","Read Mixed A",MIRROR,CHILDREN,Study2,U,174,85,STUDY,8,8,,Study/JOL,"Study Phase2",8002,,,-1,-1,,,,1
w10072976,lpy725v89d,Nick_Dissertation_EX2_EP,1,129,2022-02-22T21:34:33+00:00,8.1298232078552,1,Mixed_Stim.csv,READVersionA.csv,"Read Mixed A","Read Mixed A",MEAT,OBTAIN,Study2,U,161,96,STUDY,8,8,,Study/JOL,"Study Phase2",8002,,,-1,-1,,,,1
w10072976,lpy725v89d,Nick_Dissertation_EX2_EP,1,130,2022-02-22T21:34:41+00:00,8.133553981781,1,Mixed_Stim.csv,READVersionA.csv,"Read Mixed A","Read Mixed A",FURRY,DOG,Study2,F,102,76,STUDY,8,8,,Study/JOL,"Study Phase2",8003,,,-1,-1,,,,1
w10072976,lpy725v89d,Nick_Dissertation_EX2_EP,1,131,2022-02-22T21:34:49+00:00,8.1339390277863,1,Mixed_Stim.csv,READVersionA.csv,"Read Mixed A","Read Mixed A",CLUE,GAME,Study2,F,97,59,STUDY,8,8,,Study/JOL,"Study Phase2",8002,,,-1,-1,,,,1
w10072976,lpy725v89d,Nick_Dissertation_EX2_EP,1,132,2022-02-22T21:34:57+00:00,8.1338179111481,1,Mixed_Stim.csv,READVersionA.csv,"Read Mixed A","Read Mixed A",MULE,DONKEY,Study2,F,108,61,STUDY,8,8,,Study/JOL,"Study Phase2",8002,,,-1,-1,,,,1
w10072976,lpy725v89d,Nick_Dissertation_EX2_EP,1,133,2022-02-22T21:35:05+00:00,8.136687040329,1,Mixed_Stim.csv,READVersionA.csv,"Read Mixed A","Read Mixed A",ADJOURN,END,Study2,F,101,89,STUDY,8,8,,Study/JOL,"Study Phase2",8003,,,-1,-1,,,,1
w10072976,lpy725v89d,Nick_Dissertation_EX2_EP,1,134,2022-02-22T21:35:13+00:00,8.1336319446564,1,Mixed_Stim.csv,READVersionA.csv,"Read Mixed A","Read Mixed A",SHEARS,SCISSORS,Study2,F,112,69,STUDY,8,8,,Study/JOL,"Study Phase2",8002,,,-1,-1,,,,1
w10072976,lpy725v89d,Nick_Dissertation_EX2_EP,1,135,2022-02-22T21:35:22+00:00,8.2761919498444,1,Mixed_Stim.csv,READVersionA.csv,"Read Mixed A","Read Mixed A",BOTH,OUNCE,Study2,U,172,60,STUDY,8,8,,Study/JOL,"Study Phase2",8002,,,-1,-1,,,,1
w10072976,lpy725v89d,Nick_Dissertation_EX2_EP,1,136,2022-02-22T21:35:30+00:00,8.1511089801788,1,Mixed_Stim.csv,READVersionA.csv,"Read Mixed A","Read Mixed A",FUZZY,BANG,Study2,U,168,68,STUDY,8,8,,Study/JOL,"Study Phase2",8002,,,-1,-1,,,,1
w10072976,lpy725v89d,Nick_Dissertation_EX2_EP,1,137,2022-02-22T21:35:38+00:00,8.126816034317,1,Mixed_Stim.csv,READVersionA.csv,"Read Mixed A","Read Mixed A",KEYS,JOKE,Study2,U,165,73,STUDY,8,8,,Study/JOL,"Study Phase2",8002,,,-1,-1,,,,1
w10072976,lpy725v89d,Nick_Dissertation_EX2_EP,1,138,2022-02-22T21:35:46+00:00,8.1474580764771,1,Mixed_Stim.csv,READVersionA.csv,"Read Mixed A","Read Mixed A",LITTER,TRASH,Study2,F,103,94,STUDY,8,8,,Study/JOL,"Study Phase2",8003,,,-1,-1,,,,1
w10072976,lpy725v89d,Nick_Dissertation_EX2_EP,1,139,2022-02-22T21:35:54+00:00,8.1306428909302,1,Mixed_Stim.csv,READVersionA.csv,"Read Mixed A","Read Mixed A",GIVE,STEAK,Study2,U,158,90,STUDY,8,8,,Study/JOL,"Study Phase2",8002,,,-1,-1,,,,1
w10072976,lpy725v89d,Nick_Dissertation_EX2_EP,1,140,2022-02-22T21:36:02+00:00,8.1331460475922,1,Mixed_Stim.csv,READVersionA.csv,"Read Mixed A","Read Mixed A",DRIVER,CAR,Study2,F,106,93,STUDY,8,8,,Study/JOL,"Study Phase2",8006,,,-1,-1,,,,1
w10072976,lpy725v89d,Nick_Dissertation_EX2_EP,1,141,2022-02-22T21:36:11+00:00,8.1192770004272,1,Mixed_Stim.csv,READVersionA.csv,"Read Mixed A","Read Mixed A",TOOL,SHED,BUFFER4,Buffer,178,100,STUDY,8,8,,Study/JOL,BUFFER4,8002,,,-1,-1,,,,1
w10072976,lpy725v89d,Nick_Dissertation_EX2_EP,1,142,2022-02-22T21:36:19+00:00,8.1366679668427,1,Mixed_Stim.csv,READVersionA.csv,"Read Mixed A","Read Mixed A",DAYS,WEAKS,BUFFER4,Buffer,176,99,STUDY,8,8,,Study/JOL,BUFFER4,8002,,,-1,-1,,,,1
w10072976,lpy725v89d,Nick_Dissertation_EX2_EP,1,143,2022-02-22T21:36:27+00:00,8.1334919929504,1,Mixed_Stim.csv,READVersionA.csv,"Read Mixed A","Read Mixed A",SPRING,MARCH,BUFFER4,Buffer,179,97,STUDY,8,8,,Study/JOL,BUFFER4,8002,,,-1,-1,,,,1
w10072976,lpy725v89d,Nick_Dissertation_EX2_EP,1,144,2022-02-22T21:36:35+00:00,8.13583111763,1,Mixed_Stim.csv,READVersionA.csv,"Read Mixed A","Read Mixed A",OCTOBER,SPOOKY,BUFFER4,Buffer,180,101,STUDY,8,8,,Study/JOL,BUFFER4,8002,,,-1,-1,,,,1
w10072976,lpy725v89d,Nick_Dissertation_EX2_EP,1,145,2022-02-22T21:36:43+00:00,8.1297190189362,1,Mixed_Stim.csv,READVersionA.csv,"Read Mixed A","Read Mixed A",MONTH,YEAR,BUFFER4,Buffer,177,98,STUDY,8,8,,Study/JOL,BUFFER4,8003,,,-1,-1,,,,1
w10072976,lpy725v89d,Nick_Dissertation_EX2_EP,1,146,2022-02-22T21:36:46+00:00,2.7050428390503,1,Mixed_Stim.csv,READVersionA.csv,"Read Mixed A","Read Mixed A",,,,,,0,Instruct,User,-,"You have completed this section. Please press Enter.",Filler_Instruction,Instruct5,2576,,,-1,-1,,,,1
w10072976,lpy725v89d,Nick_Dissertation_EX2_EP,1,147,2022-02-22T21:38:46+00:00,120.15474200249,1,Mixed_Stim.csv,READVersionA.csv,"Read Mixed A","Read Mixed A",,,,,,0,FreeRecall,120,120,"Please list the 50 US states in reverse alphabetical order (z - a). The task will automatically advance to the next screen after two minutes.",,Filler2,120001,"Alabama, Alaska, Arkansas, Arizona, California, Colorado, Delaware, Florida, Georgia,",0,2128,119584,0,0,,1
w10072976,lpy725v89d,Nick_Dissertation_EX2_EP,1,148,2022-02-22T21:38:59+00:00,12.878288030624,1,Mixed_Stim.csv,READVersionA.csv,"Read Mixed A","Read Mixed A",,,,,,0,Instruct,-,10,"You will now be presented with the first word from each of the previously studied item pairs. Please type the missing word. If you do not know the word, you may guess or press Enter to skip forward to the next pair.",,Instruct6,12715,,,-1,-1,,,,1
w10072976,lpy725v89d,Nick_Dissertation_EX2_EP,1,149,2022-02-22T21:39:03+00:00,4.5818190574646,1,Mixed_Stim.csv,READVersionA.csv,"Read Mixed A","Read Mixed A",FURRY,DOG,Study2,F,102,76,Test,User,-,,Recall,Recall2,4452,Dog,100,3405,3655,1,1,,1
w10072976,lpy725v89d,Nick_Dissertation_EX2_EP,1,150,2022-02-22T21:39:09+00:00,5.2050850391388,1,Mixed_Stim.csv,READVersionA.csv,"Read Mixed A","Read Mixed A",MOAT,CLEAR,Study2,U,169,86,Test,User,-,,Recall,Recall2,5074,Water,40,4340,4934,0,0,,1
w10072976,lpy725v89d,Nick_Dissertation_EX2_EP,1,151,2022-02-22T21:39:13+00:00,4.3830509185791,1,Mixed_Stim.csv,READVersionA.csv,"Read Mixed A","Read Mixed A",ADJOURN,END,Study2,F,101,89,Test,User,-,,Recall,Recall2,4228,End,100,3706,3903,1,1,,1
w10072976,lpy725v89d,Nick_Dissertation_EX2_EP,1,152,2022-02-22T21:39:18+00:00,4.834105014801,1,Mixed_Stim.csv,READVersionA.csv,"Read Mixed A","Read Mixed A",VEHICLE,CHARM,Study2,U,160,91,Test,User,-,,Recall,Recall2,4708,Adore,40,1310,4111,0,0,,1
w10072976,lpy725v89d,Nick_Dissertation_EX2_EP,1,153,2022-02-22T21:39:20+00:00,2.6474759578705,1,Mixed_Stim.csv,READVersionA.csv,"Read Mixed A","Read Mixed A",CLUE,GAME,Study2,F,97,59,Test,User,-,,Recall,Recall2,2516,Game,100,1908,2296,1,1,,1
w10072976,lpy725v89d,Nick_Dissertation_EX2_EP,1,154,2022-02-22T21:39:22+00:00,1.5918130874634,1,Mixed_Stim.csv,READVersionA.csv,"Read Mixed A","Read Mixed A",CHERRY,RED,Study2,F,104,74,Test,User,-,,Recall,Recall2,1459,Red,100,1017,1376,1,1,,1
w10072976,lpy725v89d,Nick_Dissertation_EX2_EP,1,155,2022-02-22T21:39:26+00:00,4.0297949314117,1,Mixed_Stim.csv,READVersionA.csv,"Read Mixed A","Read Mixed A",MAIN,SCAR,Study2,U,175,82,Test,User,-,,Recall,Recall2,3900,Character,46.153846153846,2594,3745,0,0,,1
w10072976,lpy725v89d,Nick_Dissertation_EX2_EP,1,156,2022-02-22T21:39:30+00:00,3.6972839832306,1,Mixed_Stim.csv,READVersionA.csv,"Read Mixed A","Read Mixed A",LITTER,TRASH,Study2,F,103,94,Test,User,-,,Recall,Recall2,3567,Trash,100,1756,3101,1,1,,1
w10072976,lpy725v89d,Nick_Dissertation_EX2_EP,1,157,2022-02-22T21:39:32+00:00,2.0266571044922,1,Mixed_Stim.csv,READVersionA.csv,"Read Mixed A","Read Mixed A",DOCUMENT,PAPER,Study2,F,109,88,Test,User,-,,Recall,Recall2,1891,paper,100,1300,1782,1,1,,1
w10072976,lpy725v89d,Nick_Dissertation_EX2_EP,1,158,2022-02-22T21:39:36+00:00,3.8014149665833,1,Mixed_Stim.csv,READVersionA.csv,"Read Mixed A","Read Mixed A",DETECTIVE,MYSTERY,Study2,F,100,70,Test,User,-,,Recall,Recall2,3676,Clue,18.181818181818,1767,3478,0,0,,1
w10072976,lpy725v89d,Nick_Dissertation_EX2_EP,1,159,2022-02-22T21:39:40+00:00,4.407998085022,1,Mixed_Stim.csv,READVersionA.csv,"Read Mixed A","Read Mixed A",STRETCH,CLOTH,Study2,U,157,63,Test,User,-,,Recall,Recall2,4276,String,18.181818181818,1593,4075,0,0,,1
w10072976,lpy725v89d,Nick_Dissertation_EX2_EP,1,160,2022-02-22T21:39:42+00:00,1.861576795578,1,Mixed_Stim.csv,READVersionA.csv,"Read Mixed A","Read Mixed A",AFFECTION,LOVE,Study2,F,115,77,Test,User,-,,Recall,Recall2,1722,Love,100,1139,1598,1,1,,1
w10072976,lpy725v89d,Nick_Dissertation_EX2_EP,1,161,2022-02-22T21:39:45+00:00,3.318293094635,1,Mixed_Stim.csv,READVersionA.csv,"Read Mixed A","Read Mixed A",GIVE,STEAK,Study2,U,158,90,Test,User,-,,Recall,Recall2,3179,Recieve,16.666666666667,2017,2861,0,0,,1
w10072976,lpy725v89d,Nick_Dissertation_EX2_EP,1,162,2022-02-22T21:39:47+00:00,1.8765079975128,1,Mixed_Stim.csv,READVersionA.csv,"Read Mixed A","Read Mixed A",CHILL,COLD,Study2,F,114,84,Test,User,-,,Recall,Recall2,1750,Cold,100,1296,1627,1,1,,1
w10072976,lpy725v89d,Nick_Dissertation_EX2_EP,1,163,2022-02-22T21:39:51+00:00,4.0223999023438,1,Mixed_Stim.csv,READVersionA.csv,"Read Mixed A","Read Mixed A",CRACKLE,ABLE,Study2,U,162,79,Test,User,-,,Recall,Recall2,3889,Pop,0,3267,3562,0,0,,1
w10072976,lpy725v89d,Nick_Dissertation_EX2_EP,1,164,2022-02-22T21:39:54+00:00,2.564150094986,1,Mixed_Stim.csv,READVersionA.csv,"Read Mixed A","Read Mixed A",SHOELACE,TIE,Study2,F,99,95,Test,User,-,,Recall,Recall2,2431,String,44.444444444444,1420,2157,0,0,,1
w10072976,lpy725v89d,Nick_Dissertation_EX2_EP,1,165,2022-02-22T21:39:59+00:00,5.4041149616241,1,Mixed_Stim.csv,READVersionA.csv,"Read Mixed A","Read Mixed A",MEAT,OBTAIN,Study2,U,161,96,Test,User,-,,Recall,Recall2,5271,Cow,22.222222222222,4068,4809,0,0,,1
w10072976,lpy725v89d,Nick_Dissertation_EX2_EP,1,166,2022-02-22T21:40:03+00:00,4.3188490867615,1,Mixed_Stim.csv,READVersionA.csv,"Read Mixed A","Read Mixed A",CAKE,CLOTHES,Study2,U,166,65,Test,User,-,,Recall,Recall2,4187,Sweet,16.666666666667,3205,3956,0,0,,1
w10072976,lpy725v89d,Nick_Dissertation_EX2_EP,1,167,2022-02-22T21:40:06+00:00,2.8335978984833,1,Mixed_Stim.csv,READVersionA.csv,"Read Mixed A","Read Mixed A",DRIVER,CAR,Study2,F,106,93,Test,User,-,,Recall,Recall2,2699,Car,100,1308,1890,1,1,,1
w10072976,lpy725v89d,Nick_Dissertation_EX2_EP,1,168,2022-02-22T21:40:12+00:00,6.0245900154114,1,Mixed_Stim.csv,READVersionA.csv,"Read Mixed A","Read Mixed A",INCENSE,SMELL,Study2,F,110,66,Test,User,-,,Recall,Recall2,5903,Treat,20,4881,5767,0,0,,1
w10072976,lpy725v89d,Nick_Dissertation_EX2_EP,1,169,2022-02-22T21:40:15+00:00,3.1895251274109,1,Mixed_Stim.csv,READVersionA.csv,"Read Mixed A","Read Mixed A",ROOT,PLANT,Study1,F,13,23,Test,User,-,,Recall,Recall2,3066,Plant,100,1738,2913,1,1,,1
w10072976,lpy725v89d,Nick_Dissertation_EX2_EP,1,170,2022-02-22T21:40:17+00:00,1.9069848060608,1,Mixed_Stim.csv,READVersionA.csv,"Read Mixed A","Read Mixed A",LOAN,SIGN,Study2,U,171,81,Test,User,-,,Recall,Recall2,1778,Money,22.222222222222,986,1482,0,0,,1
w10072976,lpy725v89d,Nick_Dissertation_EX2_EP,1,171,2022-02-22T21:40:20+00:00,2.6493391990662,1,Mixed_Stim.csv,READVersionA.csv,"Read Mixed A","Read Mixed A",NAME,HATE,Study2,U,167,92,Test,User,-,,Recall,Recall2,2516,Tag,28.571428571429,1890,2253,0,0,,1
w10072976,lpy725v89d,Nick_Dissertation_EX2_EP,1,172,2022-02-22T21:40:22+00:00,2.3300828933716,1,Mixed_Stim.csv,READVersionA.csv,"Read Mixed A","Read Mixed A",TEMPERATURE,Morning,Study2,U,173,75,Test,User,-,,Recall,Recall2,2212,Heat,0,1396,2087,0,0,,1
w10072976,lpy725v89d,Nick_Dissertation_EX2_EP,1,173,2022-02-22T21:40:25+00:00,2.2996640205383,1,Mixed_Stim.csv,READVersionA.csv,"Read Mixed A","Read Mixed A",FUZZY,BANG,Study2,U,168,68,Test,User,-,,Recall,Recall2,2173,Dog,28.571428571429,1324,2036,0,0,,1
w10072976,lpy725v89d,Nick_Dissertation_EX2_EP,1,174,2022-02-22T21:40:30+00:00,4.9340989589691,1,Mixed_Stim.csv,READVersionA.csv,"Read Mixed A","Read Mixed A",CHOP,CUT,Study2,F,107,67,Test,User,-,,Recall,Recall2,4736,Knife,0,1429,4589,0,0,,1
w10072976,lpy725v89d,Nick_Dissertation_EX2_EP,1,175,2022-02-22T21:40:32+00:00,2.4940531253815,1,Mixed_Stim.csv,READVersionA.csv,"Read Mixed A","Read Mixed A",MAZE,ELECTION,Study2,U,159,64,Test,User,-,,Recall,Recall2,2049,COrn,50,1543,1837,0,0,,1
w10072976,lpy725v89d,Nick_Dissertation_EX2_EP,1,176,2022-02-22T21:40:40+00:00,7.9157328605652,1,Mixed_Stim.csv,READVersionA.csv,"Read Mixed A","Read Mixed A",LEASE,TOIL,Study2,U,170,80,Test,User,-,,Recall,Recall2,7781,Ajourn,20,2815,7450,0,0,,1
w10072976,lpy725v89d,Nick_Dissertation_EX2_EP,1,177,2022-02-22T21:40:44+00:00,4.2355439662933,1,Mixed_Stim.csv,READVersionA.csv,"Read Mixed A","Read Mixed A",MIRROR,CHILDREN,Study2,U,174,85,Test,User,-,,Recall,Recall2,4100,Children,100,2130,3642,1,1,,1
w10072976,lpy725v89d,Nick_Dissertation_EX2_EP,1,178,2022-02-22T21:40:47+00:00,2.8179311752319,1,Mixed_Stim.csv,READVersionA.csv,"Read Mixed A","Read Mixed A",Shell,SHAKE,Study2,U,163,78,Test,User,-,,Recall,Recall2,2690,Shock,60,1961,2444,0,0,,1
w10072976,lpy725v89d,Nick_Dissertation_EX2_EP,1,179,2022-02-22T21:40:51+00:00,3.5365948677063,1,Mixed_Stim.csv,READVersionA.csv,"Read Mixed A","Read Mixed A",EXTENSION,LONG,Study2,F,96,87,Test,User,-,,Recall,Recall2,3406,long,100,1769,3101,1,1,,1
w10072976,lpy725v89d,Nick_Dissertation_EX2_EP,1,180,2022-02-22T21:40:53+00:00,2.4695949554443,1,Mixed_Stim.csv,READVersionA.csv,"Read Mixed A","Read Mixed A",BOTH,OUNCE,Study2,U,172,60,Test,User,-,,Recall,Recall2,2338,,0,-1,-1,0,0,,1
w10072976,lpy725v89d,Nick_Dissertation_EX2_EP,1,181,2022-02-22T21:40:55+00:00,2.2118291854858,1,Mixed_Stim.csv,READVersionA.csv,"Read Mixed A","Read Mixed A",CLUE,GAME,Study2,F,97,59,Test,User,-,,Recall,Recall2,2086,game,100,1521,1937,1,1,,1
w10072976,lpy725v89d,Nick_Dissertation_EX2_EP,1,182,2022-02-22T21:40:57+00:00,2.0667698383331,1,Mixed_Stim.csv,READVersionA.csv,"Read Mixed A","Read Mixed A",KEYS,JOKE,Study2,U,165,73,Test,User,-,,Recall,Recall2,1948,car,0,1378,1858,0,0,,1
w10072976,lpy725v89d,Nick_Dissertation_EX2_EP,1,183,2022-02-22T21:40:59+00:00,1.9676580429077,1,Mixed_Stim.csv,READVersionA.csv,"Read Mixed A","Read Mixed A",SCALP,HEAD,Study2,F,105,71,Test,User,-,,Recall,Recall2,1840,head,100,1242,1750,1,1,,1
w10072976,lpy725v89d,Nick_Dissertation_EX2_EP,1,184,2022-02-22T21:41:02+00:00,2.4126250743866,1,Mixed_Stim.csv,READVersionA.csv,"Read Mixed A","Read Mixed A",MULE,DONKEY,Study2,F,108,61,Test,User,-,,Recall,Recall2,2280,donkey,100,1066,2004,1,1,,1
w10072976,lpy725v89d,Nick_Dissertation_EX2_EP,1,185,2022-02-22T21:41:05+00:00,2.8765239715576,1,Mixed_Stim.csv,READVersionA.csv,"Read Mixed A","Read Mixed A",DINE,EAT,Study2,F,111,57,Test,User,-,,Recall,Recall2,2723,food,0,1585,2600,0,0,,1
w10072976,lpy725v89d,Nick_Dissertation_EX2_EP,1,186,2022-02-22T21:41:07+00:00,2.6970160007477,1,Mixed_Stim.csv,READVersionA.csv,"Read Mixed A","Read Mixed A",LISTEN,FICTION,Study2,U,164,62,Test,User,-,,Recall,Recall2,2566,ears,0,1123,2443,0,0,,1
w10072976,lpy725v89d,Nick_Dissertation_EX2_EP,1,187,2022-02-22T21:41:11+00:00,4.1839230060577,1,Mixed_Stim.csv,READVersionA.csv,"Read Mixed A","Read Mixed A",JUSTICE,MAROON,Study2,U,156,72,Test,User,-,,Recall,Recall2,4051,judge,0,3437,3852,0,0,,1
w10072976,lpy725v89d,Nick_Dissertation_EX2_EP,1,188,2022-02-22T21:41:16+00:00,4.7040770053864,1,Mixed_Stim.csv,READVersionA.csv,"Read Mixed A","Read Mixed A",SHEARS,SCISSORS,Study2,F,112,69,Test,User,-,,Recall,Recall2,4566,scissors,100,2472,4460,1,1,,1
w10072976,lpy725v89d,Nick_Dissertation_EX2_EP,1,189,2022-02-22T21:41:18+00:00,1.6951410770416,1,Mixed_Stim.csv,READVersionA.csv,"Read Mixed A","Read Mixed A",,,,,,0,Instruct,User,-,"You have completed this section. Please press Enter.",,Instruct7,1564,,,-1,-1,,,,1
w10072976,lpy725v89d,Nick_Dissertation_EX2_EP,1,190,2022-02-22T21:41:20+00:00,2.4650359153748,1,Mixed_Stim.csv,READVersionA.csv,"Read Mixed A","Read Mixed A",,,,,,0,Instruct,User,-,"The following screen will ask you a few questions abour your experience today. You must complete these questions to receive credit.",,Instruct8,2345,,,-1,-1,,,,1
