Username,ID,ExperimentName,Session,Trial,Date,TimeDif,"Condition Number","Stimuli File","Order File","Condition Description","Condition Notes",Stimuli*Cue,Stimuli*Answer,Stimuli*Shuffle,"Stimuli*Stimuli Notes",Stimuli*Value,Procedure*Item,"Procedure*Trial Type","Procedure*Max Time","Procedure*Min Time",Procedure*Text,"Procedure*Procedure Notes",Procedure*Shuffle,Response*RT,Response*Response,Response*Accuracy,Response*RTfirst,Response*RTlast,Response*strictAcc,Response*lenientAcc,Response*focus,Response*Focus
10089008,qt7puxpdy6,Nick_Dissertation_EX2_EP,1,1,2022-05-04T20:51:57+00:00,11.031080007553,1,Mixed_Stim.csv,READVersionA.csv,"Read Mixed A","Read Mixed A",,,,,,0,Instruct,-,10,"Please study each of the following word pairs. Remember that your memory will be tested! Each pair will be displayed on the computer screen and will automatically advance to the next pair. Press ENTER when you are ready to begin.",Initial_Instruct,Instruct1,10849,,,-1,-1,,,,1
10089008,qt7puxpdy6,Nick_Dissertation_EX2_EP,1,2,2022-05-04T20:52:05+00:00,8.1427869796753,1,Mixed_Stim.csv,READVersionA.csv,"Read Mixed A","Read Mixed A",TREES,GREEN,BUFFER1,Buffer,1,2,STUDY,8,8,,Study/JOL,BUFFER,8001,,,-1,-1,,,,1
10089008,qt7puxpdy6,Nick_Dissertation_EX2_EP,1,3,2022-05-04T20:52:13+00:00,8.1413111686707,1,Mixed_Stim.csv,READVersionA.csv,"Read Mixed A","Read Mixed A",SCARE,HIDE,BUFFER1,Buffer,4,3,STUDY,8,8,,Study/JOL,BUFFER,8002,,,-1,-1,,,,1
10089008,qt7puxpdy6,Nick_Dissertation_EX2_EP,1,4,2022-05-04T20:52:21+00:00,8.1455328464508,1,Mixed_Stim.csv,READVersionA.csv,"Read Mixed A","Read Mixed A",BASEBALL,CATCHER,BUFFER1,Buffer,2,4,STUDY,8,8,,Study/JOL,BUFFER,8004,,,-1,-1,,,,1
10089008,qt7puxpdy6,Nick_Dissertation_EX2_EP,1,5,2022-05-04T20:52:29+00:00,8.1475551128387,1,Mixed_Stim.csv,READVersionA.csv,"Read Mixed A","Read Mixed A",SPACE,JAM,BUFFER1,Buffer,5,5,STUDY,8,8,,Study/JOL,BUFFER,8008,,,-1,-1,,,,1
10089008,qt7puxpdy6,Nick_Dissertation_EX2_EP,1,6,2022-05-04T20:52:38+00:00,8.1412038803101,1,Mixed_Stim.csv,READVersionA.csv,"Read Mixed A","Read Mixed A",PEANUT,BUTTER,BUFFER1,Buffer,3,6,STUDY,8,8,,Study/JOL,BUFFER,8003,,,-1,-1,,,,1
10089008,qt7puxpdy6,Nick_Dissertation_EX2_EP,1,7,2022-05-04T20:52:46+00:00,8.1345071792603,1,Mixed_Stim.csv,READVersionA.csv,"Read Mixed A","Read Mixed A",PUSHER,CLUTTER,Study1,U,66,14,STUDY,8,8,,Study/JOL,"Study Phase",8003,,,-1,-1,,,,1
10089008,qt7puxpdy6,Nick_Dissertation_EX2_EP,1,8,2022-05-04T20:52:54+00:00,8.1703679561615,1,Mixed_Stim.csv,READVersionA.csv,"Read Mixed A","Read Mixed A",LIFT,WOMAN,Study1,U,69,12,STUDY,8,8,,Study/JOL,"Study Phase",8003,,,-1,-1,,,,1
10089008,qt7puxpdy6,Nick_Dissertation_EX2_EP,1,9,2022-05-04T20:53:02+00:00,8.163125038147,1,Mixed_Stim.csv,READVersionA.csv,"Read Mixed A","Read Mixed A",HORNET,STING,Study1,F,11,46,STUDY,8,8,,Study/JOL,"Study Phase",8002,,,-1,-1,,,,1
10089008,qt7puxpdy6,Nick_Dissertation_EX2_EP,1,10,2022-05-04T20:53:10+00:00,8.1327369213104,1,Mixed_Stim.csv,READVersionA.csv,"Read Mixed A","Read Mixed A",KING,VASE,Study1,U,85,35,STUDY,8,8,,Study/JOL,"Study Phase",8001,,,-1,-1,,,,1
10089008,qt7puxpdy6,Nick_Dissertation_EX2_EP,1,11,2022-05-04T20:53:18+00:00,8.1526460647583,1,Mixed_Stim.csv,READVersionA.csv,"Read Mixed A","Read Mixed A",DISCUSSION,TALK,Study1,F,21,15,STUDY,8,8,,Study/JOL,"Study Phase",8004,,,-1,-1,,,,1
10089008,qt7puxpdy6,Nick_Dissertation_EX2_EP,1,12,2022-05-04T20:53:27+00:00,8.1440498828888,1,Mixed_Stim.csv,READVersionA.csv,"Read Mixed A","Read Mixed A",CASH,WOULD,Study1,U,83,39,STUDY,8,8,,Study/JOL,"Study Phase",8009,,,-1,-1,,,,1
10089008,qt7puxpdy6,Nick_Dissertation_EX2_EP,1,13,2022-05-04T20:53:35+00:00,8.1628251075745,1,Mixed_Stim.csv,READVersionA.csv,"Read Mixed A","Read Mixed A",DIETARY,SACKING,Study1,U,67,24,STUDY,8,8,,Study/JOL,"Study Phase",8002,,,-1,-1,,,,1
10089008,qt7puxpdy6,Nick_Dissertation_EX2_EP,1,14,2022-05-04T20:53:43+00:00,8.139298915863,1,Mixed_Stim.csv,READVersionA.csv,"Read Mixed A","Read Mixed A",REVOLUTION,WAR,Study1,F,20,40,STUDY,8,8,,Study/JOL,"Study Phase",8010,,,-1,-1,,,,1
10089008,qt7puxpdy6,Nick_Dissertation_EX2_EP,1,15,2022-05-04T20:53:51+00:00,8.1592061519623,1,Mixed_Stim.csv,READVersionA.csv,"Read Mixed A","Read Mixed A",GEOLOGY,ROCK,Study1,F,19,38,STUDY,8,8,,Study/JOL,"Study Phase",8002,,,-1,-1,,,,1
10089008,qt7puxpdy6,Nick_Dissertation_EX2_EP,1,16,2022-05-04T20:53:59+00:00,8.1496279239655,1,Mixed_Stim.csv,READVersionA.csv,"Read Mixed A","Read Mixed A",HAPPY,CAR,Study1,U,77,17,STUDY,8,8,,Study/JOL,"Study Phase",8005,,,-1,-1,,,,1
10089008,qt7puxpdy6,Nick_Dissertation_EX2_EP,1,17,2022-05-04T20:54:07+00:00,8.1322569847107,1,Mixed_Stim.csv,READVersionA.csv,"Read Mixed A","Read Mixed A",WAGE,MONEY,Study1,F,8,30,STUDY,8,8,,Study/JOL,"Study Phase",8003,,,-1,-1,,,,1
10089008,qt7puxpdy6,Nick_Dissertation_EX2_EP,1,18,2022-05-04T20:54:15+00:00,8.1382570266724,1,Mixed_Stim.csv,READVersionA.csv,"Read Mixed A","Read Mixed A",DIGESTION,STOMACH,Study1,F,7,8,STUDY,8,8,,Study/JOL,"Study Phase",8001,,,-1,-1,,,,1
10089008,qt7puxpdy6,Nick_Dissertation_EX2_EP,1,19,2022-05-04T20:54:24+00:00,8.7726199626923,1,Mixed_Stim.csv,READVersionA.csv,"Read Mixed A","Read Mixed A",TUNA,FISH,Study1,F,25,42,STUDY,8,8,,Study/JOL,"Study Phase",8623,,,-1,-1,,,,0.862
10089008,qt7puxpdy6,Nick_Dissertation_EX2_EP,1,20,2022-05-04T20:54:33+00:00,8.6119260787964,1,Mixed_Stim.csv,READVersionA.csv,"Read Mixed A","Read Mixed A",HIDE,SICK,Study1,U,84,25,STUDY,8,8,,Study/JOL,"Study Phase",8487,,,-1,-1,,,,0
10089008,qt7puxpdy6,Nick_Dissertation_EX2_EP,1,21,2022-05-04T20:54:41+00:00,8.1477220058441,1,Mixed_Stim.csv,READVersionA.csv,"Read Mixed A","Read Mixed A",BRIDGE,WATER,Study1,F,18,18,STUDY,8,8,,Study/JOL,"Study Phase",8002,,,-1,-1,,,,0.946
10089008,qt7puxpdy6,Nick_Dissertation_EX2_EP,1,22,2022-05-04T20:54:49+00:00,8.2275729179382,1,Mixed_Stim.csv,READVersionA.csv,"Read Mixed A","Read Mixed A",VALLEY,ADD,Study1,U,82,11,STUDY,8,8,,Study/JOL,"Study Phase",8002,,,-1,-1,,,,1
10089008,qt7puxpdy6,Nick_Dissertation_EX2_EP,1,23,2022-05-04T20:54:57+00:00,8.1553010940552,1,Mixed_Stim.csv,READVersionA.csv,"Read Mixed A","Read Mixed A",WAY,OUT,Study1,F,16,45,STUDY,8,8,,Study/JOL,"Study Phase",8002,,,-1,-1,,,,1
10089008,qt7puxpdy6,Nick_Dissertation_EX2_EP,1,24,2022-05-04T20:55:05+00:00,8.1378259658813,1,Mixed_Stim.csv,READVersionA.csv,"Read Mixed A","Read Mixed A",ROOT,PLANT,Study1,F,13,28,STUDY,8,8,,Study/JOL,"Study Phase",8003,,,-1,-1,,,,1
10089008,qt7puxpdy6,Nick_Dissertation_EX2_EP,1,25,2022-05-04T20:55:14+00:00,8.1375658512115,1,Mixed_Stim.csv,READVersionA.csv,"Read Mixed A","Read Mixed A",CREDIT,CARD,Study1,F,23,21,STUDY,8,8,,Study/JOL,"Study Phase",8002,,,-1,-1,,,,1
10089008,qt7puxpdy6,Nick_Dissertation_EX2_EP,1,26,2022-05-04T20:55:22+00:00,8.1398329734802,1,Mixed_Stim.csv,READVersionA.csv,"Read Mixed A","Read Mixed A",STRONG,ACCIDENT,Study1,U,80,16,STUDY,8,8,,Study/JOL,"Study Phase",8002,,,-1,-1,,,,1
10089008,qt7puxpdy6,Nick_Dissertation_EX2_EP,1,27,2022-05-04T20:55:30+00:00,8.1476900577545,1,Mixed_Stim.csv,READVersionA.csv,"Read Mixed A","Read Mixed A",HYGIENE,CLEAN,Study1,F,17,33,STUDY,8,8,,Study/JOL,"Study Phase",8005,,,-1,-1,,,,1
10089008,qt7puxpdy6,Nick_Dissertation_EX2_EP,1,28,2022-05-04T20:55:38+00:00,8.1482739448547,1,Mixed_Stim.csv,READVersionA.csv,"Read Mixed A","Read Mixed A",MACHINE,POSITION,Study1,U,76,19,STUDY,8,8,,Study/JOL,"Study Phase",8007,,,-1,-1,,,,1
10089008,qt7puxpdy6,Nick_Dissertation_EX2_EP,1,29,2022-05-04T20:55:46+00:00,8.1567401885986,1,Mixed_Stim.csv,READVersionA.csv,"Read Mixed A","Read Mixed A",BITTER,COLD,Study1,F,12,31,STUDY,8,8,,Study/JOL,"Study Phase",8003,,,-1,-1,,,,1
10089008,qt7puxpdy6,Nick_Dissertation_EX2_EP,1,30,2022-05-04T20:55:54+00:00,8.149561882019,1,Mixed_Stim.csv,READVersionA.csv,"Read Mixed A","Read Mixed A",DISCOVER,FLOOR,Study1,U,71,13,STUDY,8,8,,Study/JOL,"Study Phase",8011,,,-1,-1,,,,1
10089008,qt7puxpdy6,Nick_Dissertation_EX2_EP,1,31,2022-05-04T20:56:02+00:00,8.1405980587006,1,Mixed_Stim.csv,READVersionA.csv,"Read Mixed A","Read Mixed A",DEBATE,SIGHT,Study1,U,73,27,STUDY,8,8,,Study/JOL,"Study Phase",8004,,,-1,-1,,,,1
10089008,qt7puxpdy6,Nick_Dissertation_EX2_EP,1,32,2022-05-04T20:56:11+00:00,8.1433520317078,1,Mixed_Stim.csv,READVersionA.csv,"Read Mixed A","Read Mixed A",ALLOW,TUCK,Study1,U,78,20,STUDY,8,8,,Study/JOL,"Study Phase",8009,,,-1,-1,,,,1
10089008,qt7puxpdy6,Nick_Dissertation_EX2_EP,1,33,2022-05-04T20:56:19+00:00,8.431144952774,1,Mixed_Stim.csv,READVersionA.csv,"Read Mixed A","Read Mixed A",EDITOR,NEWS,Study1,F,10,36,STUDY,8,8,,Study/JOL,"Study Phase",8270,,,-1,-1,,,,1
10089008,qt7puxpdy6,Nick_Dissertation_EX2_EP,1,34,2022-05-04T20:56:27+00:00,8.1551690101624,1,Mixed_Stim.csv,READVersionA.csv,"Read Mixed A","Read Mixed A",CHISEL,HAMMER,Study1,F,9,22,STUDY,8,8,,Study/JOL,"Study Phase",8002,,,-1,-1,,,,0.867
10089008,qt7puxpdy6,Nick_Dissertation_EX2_EP,1,35,2022-05-04T20:56:35+00:00,8.192291021347,1,Mixed_Stim.csv,READVersionA.csv,"Read Mixed A","Read Mixed A",DEATH,BUSINESS,Study1,U,72,32,STUDY,8,8,,Study/JOL,"Study Phase",8004,,,-1,-1,,,,1
10089008,qt7puxpdy6,Nick_Dissertation_EX2_EP,1,36,2022-05-04T20:56:44+00:00,8.1506049633026,1,Mixed_Stim.csv,READVersionA.csv,"Read Mixed A","Read Mixed A",ART,LION,Study1,U,79,29,STUDY,8,8,,Study/JOL,"Study Phase",8005,,,-1,-1,,,,1
10089008,qt7puxpdy6,Nick_Dissertation_EX2_EP,1,37,2022-05-04T20:56:52+00:00,8.1280651092529,1,Mixed_Stim.csv,READVersionA.csv,"Read Mixed A","Read Mixed A",DELINQUENT,BAD,Study1,F,6,41,STUDY,8,8,,Study/JOL,"Study Phase",8001,,,-1,-1,,,,1
10089008,qt7puxpdy6,Nick_Dissertation_EX2_EP,1,38,2022-05-04T20:57:00+00:00,8.5271179676056,1,Mixed_Stim.csv,READVersionA.csv,"Read Mixed A","Read Mixed A",PAW,DOG,Study1,F,15,43,STUDY,8,8,,Study/JOL,"Study Phase",8004,,,-1,-1,,,,1
10089008,qt7puxpdy6,Nick_Dissertation_EX2_EP,1,39,2022-05-04T20:57:08+00:00,8.2025308609009,1,Mixed_Stim.csv,READVersionA.csv,"Read Mixed A","Read Mixed A",ARTERY,BRONZE,Study1,U,74,44,STUDY,8,8,,Study/JOL,"Study Phase",8003,,,-1,-1,,,,1
10089008,qt7puxpdy6,Nick_Dissertation_EX2_EP,1,40,2022-05-04T20:57:17+00:00,8.1771540641785,1,Mixed_Stim.csv,READVersionA.csv,"Read Mixed A","Read Mixed A",PARK,HUNGRY,Study1,U,68,37,STUDY,8,8,,Study/JOL,"Study Phase",8002,,,-1,-1,,,,1
10089008,qt7puxpdy6,Nick_Dissertation_EX2_EP,1,41,2022-05-04T20:57:25+00:00,8.1253819465637,1,Mixed_Stim.csv,READVersionA.csv,"Read Mixed A","Read Mixed A",HERD,COW,Study1,F,22,9,STUDY,8,8,,Study/JOL,"Study Phase",8002,,,-1,-1,,,,1
10089008,qt7puxpdy6,Nick_Dissertation_EX2_EP,1,42,2022-05-04T20:57:33+00:00,8.1437270641327,1,Mixed_Stim.csv,READVersionA.csv,"Read Mixed A","Read Mixed A",SOON,BELT,Study1,U,70,7,STUDY,8,8,,Study/JOL,"Study Phase",8004,,,-1,-1,,,,1
10089008,qt7puxpdy6,Nick_Dissertation_EX2_EP,1,43,2022-05-04T20:57:41+00:00,8.1518368721008,1,Mixed_Stim.csv,READVersionA.csv,"Read Mixed A","Read Mixed A",SWAN,BIRD,Study1,F,14,23,STUDY,8,8,,Study/JOL,"Study Phase",8003,,,-1,-1,,,,1
10089008,qt7puxpdy6,Nick_Dissertation_EX2_EP,1,44,2022-05-04T20:57:49+00:00,8.1674671173096,1,Mixed_Stim.csv,READVersionA.csv,"Read Mixed A","Read Mixed A",ORCHID,FLOWER,Study1,F,24,34,STUDY,8,8,,Study/JOL,"Study Phase",8005,,,-1,-1,,,,1
10089008,qt7puxpdy6,Nick_Dissertation_EX2_EP,1,45,2022-05-04T20:57:57+00:00,8.1464259624481,1,Mixed_Stim.csv,READVersionA.csv,"Read Mixed A","Read Mixed A",FIX,HAND,Study1,U,75,26,STUDY,8,8,,Study/JOL,"Study Phase",8003,,,-1,-1,,,,1
10089008,qt7puxpdy6,Nick_Dissertation_EX2_EP,1,46,2022-05-04T20:58:05+00:00,8.1371560096741,1,Mixed_Stim.csv,READVersionA.csv,"Read Mixed A","Read Mixed A",SUGAR,RIDDLE,Study1,U,81,10,STUDY,8,8,,Study/JOL,"Study Phase",8003,,,-1,-1,,,,1
10089008,qt7puxpdy6,Nick_Dissertation_EX2_EP,1,47,2022-05-04T20:58:14+00:00,8.1539149284363,1,Mixed_Stim.csv,READVersionA.csv,"Read Mixed A","Read Mixed A",SHERRIF,POLICE,BUFFER2,Buffer,87,47,STUDY,8,8,,Study/JOL,BUFFER2,8002,,,-1,-1,,,,1
10089008,qt7puxpdy6,Nick_Dissertation_EX2_EP,1,48,2022-05-04T20:58:22+00:00,8.1641800403595,1,Mixed_Stim.csv,READVersionA.csv,"Read Mixed A","Read Mixed A",THING,STUFF,BUFFER2,Buffer,90,50,STUDY,8,8,,Study/JOL,BUFFER2,8004,,,-1,-1,,,,1
10089008,qt7puxpdy6,Nick_Dissertation_EX2_EP,1,49,2022-05-04T20:58:30+00:00,8.1655650138855,1,Mixed_Stim.csv,READVersionA.csv,"Read Mixed A","Read Mixed A",GEESE,GOOSE,BUFFER2,Buffer,86,48,STUDY,8,8,,Study/JOL,BUFFER2,8002,,,-1,-1,,,,1
10089008,qt7puxpdy6,Nick_Dissertation_EX2_EP,1,50,2022-05-04T20:58:38+00:00,8.1535251140594,1,Mixed_Stim.csv,READVersionA.csv,"Read Mixed A","Read Mixed A",MALT,CHOCOLATE,BUFFER2,Buffer,88,51,STUDY,8,8,,Study/JOL,BUFFER2,8003,,,-1,-1,,,,1
10089008,qt7puxpdy6,Nick_Dissertation_EX2_EP,1,51,2022-05-04T20:58:46+00:00,8.1754198074341,1,Mixed_Stim.csv,READVersionA.csv,"Read Mixed A","Read Mixed A",MOON,SPACE,BUFFER2,Buffer,89,49,STUDY,8,8,,Study/JOL,BUFFER2,8002,,,-1,-1,,,,1
10089008,qt7puxpdy6,Nick_Dissertation_EX2_EP,1,52,2022-05-04T20:58:54+00:00,7.9126691818237,1,Mixed_Stim.csv,READVersionA.csv,"Read Mixed A","Read Mixed A",,,,,,0,Instruct,User,-,"You have completed this section. Please press Enter.",Filler_Instruction,Instruct2,7747,,,-1,-1,,,,1
10089008,qt7puxpdy6,Nick_Dissertation_EX2_EP,1,53,2022-05-04T21:00:54+00:00,120.22658801079,1,Mixed_Stim.csv,READVersionA.csv,"Read Mixed A","Read Mixed A",,,,,,0,FreeRecall,120,120,"Please list the 50 US states in alphabetical order. The task will automatically advance to the next screen after two minutes.",,Filler1,120008,"alabama alaska arizona arkansas california colorado conneticut delaware florida georgia hawaii idaho illnois indiana iowa kansas kentucky louisiana maine maryland massechuesetts michigan mississippi ",0,9865,115699,0,0,,0.995
10089008,qt7puxpdy6,Nick_Dissertation_EX2_EP,1,54,2022-05-04T21:01:10+00:00,15.178368806839,1,Mixed_Stim.csv,READVersionA.csv,"Read Mixed A","Read Mixed A",,,,,,0,Instruct,-,10,"You will now be presented with the first word from each of the previously studied item pairs. Please type the missing word. If you do not know the word, you may guess or press Enter to skip forward to the next pair.",,Instruct3,14753,,,-1,-1,,,,1
10089008,qt7puxpdy6,Nick_Dissertation_EX2_EP,1,55,2022-05-04T21:01:12+00:00,2.4921381473541,1,Mixed_Stim.csv,READVersionA.csv,"Read Mixed A","Read Mixed A",DIGESTION,STOMACH,Study1,F,7,8,Test,User,-,,Recall,Recall1,2330,eat,20,1244,1477,0,0,,1
10089008,qt7puxpdy6,Nick_Dissertation_EX2_EP,1,56,2022-05-04T21:01:15+00:00,2.6755468845367,1,Mixed_Stim.csv,READVersionA.csv,"Read Mixed A","Read Mixed A",CHISEL,HAMMER,Study1,F,9,22,Test,User,-,,Recall,Recall1,2539,wood,0,1438,1780,0,0,,1
10089008,qt7puxpdy6,Nick_Dissertation_EX2_EP,1,57,2022-05-04T21:01:17+00:00,2.4849281311035,1,Mixed_Stim.csv,READVersionA.csv,"Read Mixed A","Read Mixed A",BITTER,COLD,Study1,F,12,31,Test,User,-,,Recall,Recall1,2356,taste,0,1288,1766,0,0,,1
10089008,qt7puxpdy6,Nick_Dissertation_EX2_EP,1,58,2022-05-04T21:01:20+00:00,2.471305847168,1,Mixed_Stim.csv,READVersionA.csv,"Read Mixed A","Read Mixed A",STRONG,ACCIDENT,Study1,U,80,16,Test,User,-,,Recall,Recall1,2342,smell,15.384615384615,983,1548,0,0,,1
10089008,qt7puxpdy6,Nick_Dissertation_EX2_EP,1,59,2022-05-04T21:01:22+00:00,2.4474740028381,1,Mixed_Stim.csv,READVersionA.csv,"Read Mixed A","Read Mixed A",BRIDGE,WATER,Study1,F,18,18,Test,User,-,,Recall,Recall1,2315,water,100,1100,1626,1,1,,1
10089008,qt7puxpdy6,Nick_Dissertation_EX2_EP,1,60,2022-05-04T21:01:31+00:00,8.8649320602417,1,Mixed_Stim.csv,READVersionA.csv,"Read Mixed A","Read Mixed A",DEATH,BUSINESS,Study1,U,72,32,Test,User,-,,Recall,Recall1,8727,row,0,7359,7748,0,0,,1
10089008,qt7puxpdy6,Nick_Dissertation_EX2_EP,1,61,2022-05-04T21:01:34+00:00,2.8233850002289,1,Mixed_Stim.csv,READVersionA.csv,"Read Mixed A","Read Mixed A",SWAN,BIRD,Study1,F,14,23,Test,User,-,,Recall,Recall1,2650,lake,0,1352,1831,0,0,,1
10089008,qt7puxpdy6,Nick_Dissertation_EX2_EP,1,62,2022-05-04T21:01:37+00:00,3.4009001255035,1,Mixed_Stim.csv,READVersionA.csv,"Read Mixed A","Read Mixed A",ART,LION,Study1,U,79,29,Test,User,-,,Recall,Recall1,3268,museum,0,1335,2373,0,0,,1
10089008,qt7puxpdy6,Nick_Dissertation_EX2_EP,1,63,2022-05-04T21:01:40+00:00,2.9852278232574,1,Mixed_Stim.csv,READVersionA.csv,"Read Mixed A","Read Mixed A",VALLEY,ADD,Study1,U,82,11,Test,User,-,,Recall,Recall1,2851,street,0,1259,2278,0,0,,1
10089008,qt7puxpdy6,Nick_Dissertation_EX2_EP,1,64,2022-05-04T21:01:43+00:00,2.6123859882355,1,Mixed_Stim.csv,READVersionA.csv,"Read Mixed A","Read Mixed A",PUSHER,CLUTTER,Study1,U,66,14,Test,User,-,,Recall,Recall1,2464,t,25,1011,1011,0,0,,1
10089008,qt7puxpdy6,Nick_Dissertation_EX2_EP,1,65,2022-05-04T21:01:47+00:00,4.0989701747894,1,Mixed_Stim.csv,READVersionA.csv,"Read Mixed A","Read Mixed A",ORCHID,FLOWER,Study1,F,24,34,Test,User,-,,Recall,Recall1,3959,flowers,92.307692307692,1399,3303,0,1,,1
10089008,qt7puxpdy6,Nick_Dissertation_EX2_EP,1,66,2022-05-04T21:01:50+00:00,3.2302808761597,1,Mixed_Stim.csv,READVersionA.csv,"Read Mixed A","Read Mixed A",LIFT,WOMAN,Study1,U,69,12,Test,User,-,,Recall,Recall1,3083,up,0,1403,1528,0,0,,1
10089008,qt7puxpdy6,Nick_Dissertation_EX2_EP,1,67,2022-05-04T21:01:54+00:00,3.7347531318665,1,Mixed_Stim.csv,READVersionA.csv,"Read Mixed A","Read Mixed A",HAPPY,CAR,Study1,U,77,17,Test,User,-,,Recall,Recall1,3607,feet,0,1336,1935,0,0,,1
10089008,qt7puxpdy6,Nick_Dissertation_EX2_EP,1,68,2022-05-04T21:01:57+00:00,3.2946820259094,1,Mixed_Stim.csv,READVersionA.csv,"Read Mixed A","Read Mixed A",GEOLOGY,ROCK,Study1,F,19,38,Test,User,-,,Recall,Recall1,3120,maps,0,1890,2363,0,0,,1
10089008,qt7puxpdy6,Nick_Dissertation_EX2_EP,1,69,2022-05-04T21:02:00+00:00,2.9769728183746,1,Mixed_Stim.csv,READVersionA.csv,"Read Mixed A","Read Mixed A",DEBATE,SIGHT,Study1,U,73,27,Test,User,-,,Recall,Recall1,2839,talk,22.222222222222,1418,1843,0,0,,1
10089008,qt7puxpdy6,Nick_Dissertation_EX2_EP,1,70,2022-05-04T21:02:04+00:00,3.4582710266113,1,Mixed_Stim.csv,READVersionA.csv,"Read Mixed A","Read Mixed A",HERD,COW,Study1,F,22,9,Test,User,-,,Recall,Recall1,3327,sheep,0,1773,2347,0,0,,1
10089008,qt7puxpdy6,Nick_Dissertation_EX2_EP,1,71,2022-05-04T21:02:15+00:00,10.915395975113,1,Mixed_Stim.csv,READVersionA.csv,"Read Mixed A","Read Mixed A",EDITOR,NEWS,Study1,F,10,36,Test,User,-,,Recall,Recall1,10778,news,100,10153,10577,1,1,,0.667
10089008,qt7puxpdy6,Nick_Dissertation_EX2_EP,1,72,2022-05-04T21:02:17+00:00,2.805682182312,1,Mixed_Stim.csv,READVersionA.csv,"Read Mixed A","Read Mixed A",SOON,BELT,Study1,U,70,7,Test,User,-,,Recall,Recall1,2659,home,25,2102,2550,0,0,,1
10089008,qt7puxpdy6,Nick_Dissertation_EX2_EP,1,73,2022-05-04T21:02:21+00:00,3.9966869354248,1,Mixed_Stim.csv,READVersionA.csv,"Read Mixed A","Read Mixed A",DELINQUENT,BAD,Study1,F,6,41,Test,User,-,,Recall,Recall1,3860,children,18.181818181818,2425,3362,0,0,,1
10089008,qt7puxpdy6,Nick_Dissertation_EX2_EP,1,74,2022-05-04T21:02:24+00:00,2.2656500339508,1,Mixed_Stim.csv,READVersionA.csv,"Read Mixed A","Read Mixed A",REVOLUTION,WAR,Study1,F,20,40,Test,User,-,,Recall,Recall1,2130,waqr,85.714285714286,1554,1973,0,1,,1
10089008,qt7puxpdy6,Nick_Dissertation_EX2_EP,1,75,2022-05-04T21:02:28+00:00,4.4602558612823,1,Mixed_Stim.csv,READVersionA.csv,"Read Mixed A","Read Mixed A",HYGIENE,CLEAN,Study1,F,17,33,Test,User,-,,Recall,Recall1,4315,breath,36.363636363636,2000,4047,0,0,,1
10089008,qt7puxpdy6,Nick_Dissertation_EX2_EP,1,76,2022-05-04T21:02:31+00:00,3.2621130943298,1,Mixed_Stim.csv,READVersionA.csv,"Read Mixed A","Read Mixed A",ARTERY,BRONZE,Study1,U,74,44,Test,User,-,,Recall,Recall1,3093,blood,36.363636363636,2097,2958,0,0,,1
10089008,qt7puxpdy6,Nick_Dissertation_EX2_EP,1,77,2022-05-04T21:02:36+00:00,4.1581048965454,1,Mixed_Stim.csv,READVersionA.csv,"Read Mixed A","Read Mixed A",FIX,HAND,Study1,U,75,26,Test,User,-,,Recall,Recall1,4025,hammer,40,3207,3893,0,0,,1
10089008,qt7puxpdy6,Nick_Dissertation_EX2_EP,1,78,2022-05-04T21:02:37+00:00,1.9234220981598,1,Mixed_Stim.csv,READVersionA.csv,"Read Mixed A","Read Mixed A",HIDE,SICK,Study1,U,84,25,Test,User,-,,Recall,Recall1,1777,seek,50,1037,1567,0,0,,1
10089008,qt7puxpdy6,Nick_Dissertation_EX2_EP,1,79,2022-05-04T21:02:41+00:00,3.9806399345398,1,Mixed_Stim.csv,READVersionA.csv,"Read Mixed A","Read Mixed A",SUGAR,RIDDLE,Study1,U,81,10,Test,User,-,,Recall,Recall1,3807,drink,36.363636363636,2972,3574,0,0,,1
10089008,qt7puxpdy6,Nick_Dissertation_EX2_EP,1,80,2022-05-04T21:02:44+00:00,2.17551612854,1,Mixed_Stim.csv,READVersionA.csv,"Read Mixed A","Read Mixed A",ROOT,PLANT,Study1,F,13,28,Test,User,-,,Recall,Recall1,2039,word,0,1226,1938,0,0,,1
10089008,qt7puxpdy6,Nick_Dissertation_EX2_EP,1,81,2022-05-04T21:02:46+00:00,2.2705969810486,1,Mixed_Stim.csv,READVersionA.csv,"Read Mixed A","Read Mixed A",ALLOW,TUCK,Study1,U,78,20,Test,User,-,,Recall,Recall1,2132,let,28.571428571429,1728,1972,0,0,,1
10089008,qt7puxpdy6,Nick_Dissertation_EX2_EP,1,82,2022-05-04T21:02:48+00:00,1.8633809089661,1,Mixed_Stim.csv,READVersionA.csv,"Read Mixed A","Read Mixed A",TUNA,FISH,Study1,F,25,42,Test,User,-,,Recall,Recall1,1726,fish,100,1135,1511,1,1,,1
10089008,qt7puxpdy6,Nick_Dissertation_EX2_EP,1,83,2022-05-04T21:02:50+00:00,1.9706180095673,1,Mixed_Stim.csv,READVersionA.csv,"Read Mixed A","Read Mixed A",CREDIT,CARD,Study1,F,23,21,Test,User,-,,Recall,Recall1,1832,card,100,1131,1727,1,1,,1
10089008,qt7puxpdy6,Nick_Dissertation_EX2_EP,1,84,2022-05-04T21:02:52+00:00,2.304906129837,1,Mixed_Stim.csv,READVersionA.csv,"Read Mixed A","Read Mixed A",WAY,OUT,Study1,F,16,45,Test,User,-,,Recall,Recall1,2160,street,22.222222222222,1179,2015,0,0,,1
10089008,qt7puxpdy6,Nick_Dissertation_EX2_EP,1,85,2022-05-04T21:02:55+00:00,2.6008858680725,1,Mixed_Stim.csv,READVersionA.csv,"Read Mixed A","Read Mixed A",MACHINE,POSITION,Study1,U,76,19,Test,User,-,,Recall,Recall1,2448,worl,16.666666666667,1852,2179,0,0,,1
10089008,qt7puxpdy6,Nick_Dissertation_EX2_EP,1,86,2022-05-04T21:02:58+00:00,3.7313220500946,1,Mixed_Stim.csv,READVersionA.csv,"Read Mixed A","Read Mixed A",DIETARY,SACKING,Study1,U,67,24,Test,User,-,,Recall,Recall1,3602,food,0,3088,3512,0,0,,1
10089008,qt7puxpdy6,Nick_Dissertation_EX2_EP,1,87,2022-05-04T21:03:00+00:00,2.1490030288696,1,Mixed_Stim.csv,READVersionA.csv,"Read Mixed A","Read Mixed A",KING,VASE,Study1,U,85,35,Test,User,-,,Recall,Recall1,1986,james,44.444444444444,1197,1805,0,0,,1
10089008,qt7puxpdy6,Nick_Dissertation_EX2_EP,1,88,2022-05-04T21:03:02+00:00,1.9673578739166,1,Mixed_Stim.csv,READVersionA.csv,"Read Mixed A","Read Mixed A",HORNET,STING,Study1,F,11,46,Test,User,-,,Recall,Recall1,1835,wasp,22.222222222222,1152,1636,0,0,,1
10089008,qt7puxpdy6,Nick_Dissertation_EX2_EP,1,89,2022-05-04T21:03:05+00:00,2.3853161334991,1,Mixed_Stim.csv,READVersionA.csv,"Read Mixed A","Read Mixed A",WAGE,MONEY,Study1,F,8,30,Test,User,-,,Recall,Recall1,2258,money,100,1167,2011,1,1,,1
10089008,qt7puxpdy6,Nick_Dissertation_EX2_EP,1,90,2022-05-04T21:03:08+00:00,2.7444438934326,1,Mixed_Stim.csv,READVersionA.csv,"Read Mixed A","Read Mixed A",PARK,HUNGRY,Study1,U,68,37,Test,User,-,,Recall,Recall1,2577,street,16.666666666667,1356,2220,0,0,,1
10089008,qt7puxpdy6,Nick_Dissertation_EX2_EP,1,91,2022-05-04T21:03:10+00:00,2.9241769313812,1,Mixed_Stim.csv,READVersionA.csv,"Read Mixed A","Read Mixed A",CASH,WOULD,Study1,U,83,39,Test,User,-,,Recall,Recall1,2767,credit,18.181818181818,1647,2607,0,0,,1
10089008,qt7puxpdy6,Nick_Dissertation_EX2_EP,1,92,2022-05-04T21:03:14+00:00,3.5412991046906,1,Mixed_Stim.csv,READVersionA.csv,"Read Mixed A","Read Mixed A",DISCUSSION,TALK,Study1,F,21,15,Test,User,-,,Recall,Recall1,3367,debate,20,1863,2951,0,0,,1
10089008,qt7puxpdy6,Nick_Dissertation_EX2_EP,1,93,2022-05-04T21:03:17+00:00,2.6063170433044,1,Mixed_Stim.csv,READVersionA.csv,"Read Mixed A","Read Mixed A",DISCOVER,FLOOR,Study1,U,71,13,Test,User,-,,Recall,Recall1,2454,card,22.222222222222,1650,2274,0,0,,1
10089008,qt7puxpdy6,Nick_Dissertation_EX2_EP,1,94,2022-05-04T21:03:25+00:00,8.0885858535767,1,Mixed_Stim.csv,READVersionA.csv,"Read Mixed A","Read Mixed A",PAW,DOG,Study1,F,15,43,Test,User,-,,Recall,Recall1,7922,patrol,22.222222222222,6617,7603,0,0,,1
10089008,qt7puxpdy6,Nick_Dissertation_EX2_EP,1,95,2022-05-04T21:03:38+00:00,13.582290172577,1,Mixed_Stim.csv,READVersionA.csv,"Read Mixed A","Read Mixed A",,,,,,0,Instruct,-,10,"You will now be presented with a new set of word pairs. Please study each pair. Remember that your memory will be tested! Each pair will be displayed on the computer screen and will automatically advance to the next pair. Press ENTER when you are ready to begin.",Initial_Instruct,Instruct4,13408,,,-1,-1,,,,0.811
10089008,qt7puxpdy6,Nick_Dissertation_EX2_EP,1,96,2022-05-04T21:03:46+00:00,8.1527218818665,1,Mixed_Stim.csv,READVersionA.csv,"Read Mixed A","Read Mixed A",NOODLE,STRING,BUFFER3,Buffer,92,54,STUDY,8,8,,Study/JOL,BUFFER3,8003,,,-1,-1,,,,1
10089008,qt7puxpdy6,Nick_Dissertation_EX2_EP,1,97,2022-05-04T21:03:55+00:00,8.1492719650269,1,Mixed_Stim.csv,READVersionA.csv,"Read Mixed A","Read Mixed A",ICE,FROZEN,BUFFER3,Buffer,94,55,STUDY,8,8,,Study/JOL,BUFFER3,8002,,,-1,-1,,,,1
10089008,qt7puxpdy6,Nick_Dissertation_EX2_EP,1,98,2022-05-04T21:04:03+00:00,8.1389830112457,1,Mixed_Stim.csv,READVersionA.csv,"Read Mixed A","Read Mixed A",CAMP,ADVENTURE,BUFFER3,Buffer,95,52,STUDY,8,8,,Study/JOL,BUFFER3,8005,,,-1,-1,,,,1
10089008,qt7puxpdy6,Nick_Dissertation_EX2_EP,1,99,2022-05-04T21:04:11+00:00,8.1591370105743,1,Mixed_Stim.csv,READVersionA.csv,"Read Mixed A","Read Mixed A",SHRIMP,FISH,BUFFER3,Buffer,93,56,STUDY,8,8,,Study/JOL,BUFFER3,8004,,,-1,-1,,,,1
10089008,qt7puxpdy6,Nick_Dissertation_EX2_EP,1,100,2022-05-04T21:04:19+00:00,8.1393361091614,1,Mixed_Stim.csv,READVersionA.csv,"Read Mixed A","Read Mixed A",CARROT,POTATO,BUFFER3,Buffer,91,53,STUDY,8,8,,Study/JOL,BUFFER3,8003,,,-1,-1,,,,1
10089008,qt7puxpdy6,Nick_Dissertation_EX2_EP,1,101,2022-05-04T21:04:27+00:00,8.1353180408478,1,Mixed_Stim.csv,READVersionA.csv,"Read Mixed A","Read Mixed A",AFFECTION,LOVE,Study2,F,115,78,STUDY,8,8,,Study/JOL,"Study Phase2",8005,,,-1,-1,,,,1
10089008,qt7puxpdy6,Nick_Dissertation_EX2_EP,1,102,2022-05-04T21:04:35+00:00,8.1455218791962,1,Mixed_Stim.csv,READVersionA.csv,"Read Mixed A","Read Mixed A",INCENSE,SMELL,Study2,F,110,86,STUDY,8,8,,Study/JOL,"Study Phase2",8003,,,-1,-1,,,,1
10089008,qt7puxpdy6,Nick_Dissertation_EX2_EP,1,103,2022-05-04T21:04:44+00:00,8.6116421222687,1,Mixed_Stim.csv,READVersionA.csv,"Read Mixed A","Read Mixed A",TEMPERATURE,Morning,Study2,U,173,59,STUDY,8,8,,Study/JOL,"Study Phase2",8481,,,-1,-1,,,,0.867
10089008,qt7puxpdy6,Nick_Dissertation_EX2_EP,1,104,2022-05-04T21:04:52+00:00,8.1255009174347,1,Mixed_Stim.csv,READVersionA.csv,"Read Mixed A","Read Mixed A",JUSTICE,MAROON,Study2,U,156,91,STUDY,8,8,,Study/JOL,"Study Phase2",8002,,,-1,-1,,,,0.949
10089008,qt7puxpdy6,Nick_Dissertation_EX2_EP,1,105,2022-05-04T21:05:00+00:00,8.1521530151367,1,Mixed_Stim.csv,READVersionA.csv,"Read Mixed A","Read Mixed A",DETECTIVE,MYSTERY,Study2,F,100,74,STUDY,8,8,,Study/JOL,"Study Phase2",8002,,,-1,-1,,,,1
10089008,qt7puxpdy6,Nick_Dissertation_EX2_EP,1,106,2022-05-04T21:05:08+00:00,8.1489660739899,1,Mixed_Stim.csv,READVersionA.csv,"Read Mixed A","Read Mixed A",DRIVER,CAR,Study2,F,106,65,STUDY,8,8,,Study/JOL,"Study Phase2",8002,,,-1,-1,,,,1
10089008,qt7puxpdy6,Nick_Dissertation_EX2_EP,1,107,2022-05-04T21:05:17+00:00,8.3558928966522,1,Mixed_Stim.csv,READVersionA.csv,"Read Mixed A","Read Mixed A",SHEARS,SCISSORS,Study2,F,112,96,STUDY,8,8,,Study/JOL,"Study Phase2",8003,,,-1,-1,,,,1
10089008,qt7puxpdy6,Nick_Dissertation_EX2_EP,1,108,2022-05-04T21:05:25+00:00,8.1556439399719,1,Mixed_Stim.csv,READVersionA.csv,"Read Mixed A","Read Mixed A",SHOELACE,TIE,Study2,F,99,94,STUDY,8,8,,Study/JOL,"Study Phase2",8003,,,-1,-1,,,,1
10089008,qt7puxpdy6,Nick_Dissertation_EX2_EP,1,109,2022-05-04T21:05:33+00:00,8.1552560329437,1,Mixed_Stim.csv,READVersionA.csv,"Read Mixed A","Read Mixed A",VEHICLE,CHARM,Study2,U,160,62,STUDY,8,8,,Study/JOL,"Study Phase2",8002,,,-1,-1,,,,1
10089008,qt7puxpdy6,Nick_Dissertation_EX2_EP,1,110,2022-05-04T21:05:41+00:00,8.1546010971069,1,Mixed_Stim.csv,READVersionA.csv,"Read Mixed A","Read Mixed A",TEMPERATURE,Morning,Study2,U,173,59,STUDY,8,8,,Study/JOL,"Study Phase2",8002,,,-1,-1,,,,1
10089008,qt7puxpdy6,Nick_Dissertation_EX2_EP,1,111,2022-05-04T21:05:49+00:00,8.1648540496826,1,Mixed_Stim.csv,READVersionA.csv,"Read Mixed A","Read Mixed A",CAKE,CLOTHES,Study2,U,166,61,STUDY,8,8,,Study/JOL,"Study Phase2",8003,,,-1,-1,,,,1
10089008,qt7puxpdy6,Nick_Dissertation_EX2_EP,1,112,2022-05-04T21:05:58+00:00,8.3532869815826,1,Mixed_Stim.csv,READVersionA.csv,"Read Mixed A","Read Mixed A",CRACKLE,ABLE,Study2,U,162,79,STUDY,8,8,,Study/JOL,"Study Phase2",8005,,,-1,-1,,,,1
10089008,qt7puxpdy6,Nick_Dissertation_EX2_EP,1,113,2022-05-04T21:06:06+00:00,8.2576158046722,1,Mixed_Stim.csv,READVersionA.csv,"Read Mixed A","Read Mixed A",CHERRY,RED,Study2,F,104,87,STUDY,8,8,,Study/JOL,"Study Phase2",8004,,,-1,-1,,,,1
10089008,qt7puxpdy6,Nick_Dissertation_EX2_EP,1,114,2022-05-04T21:06:14+00:00,8.1477451324463,1,Mixed_Stim.csv,READVersionA.csv,"Read Mixed A","Read Mixed A",Shell,SHAKE,Study2,U,163,84,STUDY,8,8,,Study/JOL,"Study Phase2",8002,,,-1,-1,,,,1
10089008,qt7puxpdy6,Nick_Dissertation_EX2_EP,1,115,2022-05-04T21:06:22+00:00,8.2362189292908,1,Mixed_Stim.csv,READVersionA.csv,"Read Mixed A","Read Mixed A",FUZZY,BANG,Study2,U,168,85,STUDY,8,8,,Study/JOL,"Study Phase2",8003,,,-1,-1,,,,1
10089008,qt7puxpdy6,Nick_Dissertation_EX2_EP,1,116,2022-05-04T21:06:31+00:00,8.1556980609894,1,Mixed_Stim.csv,READVersionA.csv,"Read Mixed A","Read Mixed A",CHILL,COLD,Study2,F,114,76,STUDY,8,8,,Study/JOL,"Study Phase2",8009,,,-1,-1,,,,1
10089008,qt7puxpdy6,Nick_Dissertation_EX2_EP,1,117,2022-05-04T21:06:39+00:00,8.319855928421,1,Mixed_Stim.csv,READVersionA.csv,"Read Mixed A","Read Mixed A",NAME,HATE,Study2,U,167,81,STUDY,8,8,,Study/JOL,"Study Phase2",8004,,,-1,-1,,,,1
10089008,qt7puxpdy6,Nick_Dissertation_EX2_EP,1,118,2022-05-04T21:06:47+00:00,8.1478159427643,1,Mixed_Stim.csv,READVersionA.csv,"Read Mixed A","Read Mixed A",EXTENSION,LONG,Study2,F,96,88,STUDY,8,8,,Study/JOL,"Study Phase2",8003,,,-1,-1,,,,1
10089008,qt7puxpdy6,Nick_Dissertation_EX2_EP,1,119,2022-05-04T21:06:55+00:00,8.1815102100372,1,Mixed_Stim.csv,READVersionA.csv,"Read Mixed A","Read Mixed A",SWAN,BIRD,Study1,F,14,23,STUDY,8,8,,Study/JOL,"Study Phase2",8002,,,-1,-1,,,,1
10089008,qt7puxpdy6,Nick_Dissertation_EX2_EP,1,120,2022-05-04T21:07:03+00:00,8.3202278614044,1,Mixed_Stim.csv,READVersionA.csv,"Read Mixed A","Read Mixed A",MAZE,ELECTION,Study2,U,159,60,STUDY,8,8,,Study/JOL,"Study Phase2",8003,,,-1,-1,,,,1
10089008,qt7puxpdy6,Nick_Dissertation_EX2_EP,1,121,2022-05-04T21:07:12+00:00,8.1499791145325,1,Mixed_Stim.csv,READVersionA.csv,"Read Mixed A","Read Mixed A",MAIN,SCAR,Study2,U,175,72,STUDY,8,8,,Study/JOL,"Study Phase2",8002,,,-1,-1,,,,1
10089008,qt7puxpdy6,Nick_Dissertation_EX2_EP,1,122,2022-05-04T21:07:20+00:00,8.1419498920441,1,Mixed_Stim.csv,READVersionA.csv,"Read Mixed A","Read Mixed A",MOAT,CLEAR,Study2,U,169,57,STUDY,8,8,,Study/JOL,"Study Phase2",8003,,,-1,-1,,,,1
10089008,qt7puxpdy6,Nick_Dissertation_EX2_EP,1,123,2022-05-04T21:07:28+00:00,8.1338810920715,1,Mixed_Stim.csv,READVersionA.csv,"Read Mixed A","Read Mixed A",CLUE,GAME,Study2,F,97,90,STUDY,8,8,,Study/JOL,"Study Phase2",8002,,,-1,-1,,,,1
10089008,qt7puxpdy6,Nick_Dissertation_EX2_EP,1,124,2022-05-04T21:07:36+00:00,8.1446239948273,1,Mixed_Stim.csv,READVersionA.csv,"Read Mixed A","Read Mixed A",SCALP,HEAD,Study2,F,105,89,STUDY,8,8,,Study/JOL,"Study Phase2",8002,,,-1,-1,,,,1
10089008,qt7puxpdy6,Nick_Dissertation_EX2_EP,1,125,2022-05-04T21:07:44+00:00,8.1696739196777,1,Mixed_Stim.csv,READVersionA.csv,"Read Mixed A","Read Mixed A",KEYS,JOKE,Study2,U,165,71,STUDY,8,8,,Study/JOL,"Study Phase2",8003,,,-1,-1,,,,1
10089008,qt7puxpdy6,Nick_Dissertation_EX2_EP,1,126,2022-05-04T21:07:52+00:00,8.1591029167175,1,Mixed_Stim.csv,READVersionA.csv,"Read Mixed A","Read Mixed A",DOCUMENT,PAPER,Study2,F,109,63,STUDY,8,8,,Study/JOL,"Study Phase2",8004,,,-1,-1,,,,1
10089008,qt7puxpdy6,Nick_Dissertation_EX2_EP,1,127,2022-05-04T21:08:01+00:00,8.1553030014038,1,Mixed_Stim.csv,READVersionA.csv,"Read Mixed A","Read Mixed A",LOAN,SIGN,Study2,U,171,82,STUDY,8,8,,Study/JOL,"Study Phase2",8003,,,-1,-1,,,,1
10089008,qt7puxpdy6,Nick_Dissertation_EX2_EP,1,128,2022-05-04T21:08:09+00:00,8.1503391265869,1,Mixed_Stim.csv,READVersionA.csv,"Read Mixed A","Read Mixed A",FURRY,DOG,Study2,F,102,66,STUDY,8,8,,Study/JOL,"Study Phase2",8008,,,-1,-1,,,,1
10089008,qt7puxpdy6,Nick_Dissertation_EX2_EP,1,129,2022-05-04T21:08:17+00:00,8.1744499206543,1,Mixed_Stim.csv,READVersionA.csv,"Read Mixed A","Read Mixed A",CHOP,CUT,Study2,F,107,70,STUDY,8,8,,Study/JOL,"Study Phase2",8001,,,-1,-1,,,,1
10089008,qt7puxpdy6,Nick_Dissertation_EX2_EP,1,130,2022-05-04T21:08:25+00:00,8.141270160675,1,Mixed_Stim.csv,READVersionA.csv,"Read Mixed A","Read Mixed A",CACTUS,PLANT,Study2,F,98,73,STUDY,8,8,,Study/JOL,"Study Phase2",8002,,,-1,-1,,,,1
10089008,qt7puxpdy6,Nick_Dissertation_EX2_EP,1,131,2022-05-04T21:08:33+00:00,8.1454088687897,1,Mixed_Stim.csv,READVersionA.csv,"Read Mixed A","Read Mixed A",DINE,EAT,Study2,F,111,77,STUDY,8,8,,Study/JOL,"Study Phase2",8002,,,-1,-1,,,,1
10089008,qt7puxpdy6,Nick_Dissertation_EX2_EP,1,132,2022-05-04T21:08:41+00:00,8.1557610034943,1,Mixed_Stim.csv,READVersionA.csv,"Read Mixed A","Read Mixed A",LITTER,TRASH,Study2,F,103,68,STUDY,8,8,,Study/JOL,"Study Phase2",8003,,,-1,-1,,,,1
10089008,qt7puxpdy6,Nick_Dissertation_EX2_EP,1,133,2022-05-04T21:08:49+00:00,8.1395320892334,1,Mixed_Stim.csv,READVersionA.csv,"Read Mixed A","Read Mixed A",GIVE,STEAK,Study2,U,158,69,STUDY,8,8,,Study/JOL,"Study Phase2",8004,,,-1,-1,,,,1
10089008,qt7puxpdy6,Nick_Dissertation_EX2_EP,1,134,2022-05-04T21:08:58+00:00,8.1298270225525,1,Mixed_Stim.csv,READVersionA.csv,"Read Mixed A","Read Mixed A",FEUD,FIGHT,Study2,F,113,75,STUDY,8,8,,Study/JOL,"Study Phase2",8003,,,-1,-1,,,,1
10089008,qt7puxpdy6,Nick_Dissertation_EX2_EP,1,135,2022-05-04T21:09:06+00:00,8.1623380184174,1,Mixed_Stim.csv,READVersionA.csv,"Read Mixed A","Read Mixed A",LISTEN,FICTION,Study2,U,164,95,STUDY,8,8,,Study/JOL,"Study Phase2",8002,,,-1,-1,,,,1
10089008,qt7puxpdy6,Nick_Dissertation_EX2_EP,1,136,2022-05-04T21:09:14+00:00,8.1640248298645,1,Mixed_Stim.csv,READVersionA.csv,"Read Mixed A","Read Mixed A",MEAT,OBTAIN,Study2,U,161,80,STUDY,8,8,,Study/JOL,"Study Phase2",8002,,,-1,-1,,,,1
10089008,qt7puxpdy6,Nick_Dissertation_EX2_EP,1,137,2022-05-04T21:09:22+00:00,8.1457200050354,1,Mixed_Stim.csv,READVersionA.csv,"Read Mixed A","Read Mixed A",LEASE,TOIL,Study2,U,170,64,STUDY,8,8,,Study/JOL,"Study Phase2",8003,,,-1,-1,,,,1
10089008,qt7puxpdy6,Nick_Dissertation_EX2_EP,1,138,2022-05-04T21:09:30+00:00,8.1436419487,1,Mixed_Stim.csv,READVersionA.csv,"Read Mixed A","Read Mixed A",MIRROR,CHILDREN,Study2,U,174,92,STUDY,8,8,,Study/JOL,"Study Phase2",8003,,,-1,-1,,,,1
10089008,qt7puxpdy6,Nick_Dissertation_EX2_EP,1,139,2022-05-04T21:09:38+00:00,8.1557700634003,1,Mixed_Stim.csv,READVersionA.csv,"Read Mixed A","Read Mixed A",MULE,DONKEY,Study2,F,108,93,STUDY,8,8,,Study/JOL,"Study Phase2",8003,,,-1,-1,,,,1
10089008,qt7puxpdy6,Nick_Dissertation_EX2_EP,1,140,2022-05-04T21:09:46+00:00,8.1533870697021,1,Mixed_Stim.csv,READVersionA.csv,"Read Mixed A","Read Mixed A",BOTH,OUNCE,Study2,U,172,67,STUDY,8,8,,Study/JOL,"Study Phase2",8003,,,-1,-1,,,,1
10089008,qt7puxpdy6,Nick_Dissertation_EX2_EP,1,141,2022-05-04T21:09:55+00:00,8.1518189907074,1,Mixed_Stim.csv,READVersionA.csv,"Read Mixed A","Read Mixed A",SPRING,MARCH,BUFFER4,Buffer,179,99,STUDY,8,8,,Study/JOL,BUFFER4,8002,,,-1,-1,,,,1
10089008,qt7puxpdy6,Nick_Dissertation_EX2_EP,1,142,2022-05-04T21:10:03+00:00,8.1414799690247,1,Mixed_Stim.csv,READVersionA.csv,"Read Mixed A","Read Mixed A",OCTOBER,SPOOKY,BUFFER4,Buffer,180,100,STUDY,8,8,,Study/JOL,BUFFER4,8002,,,-1,-1,,,,1
10089008,qt7puxpdy6,Nick_Dissertation_EX2_EP,1,143,2022-05-04T21:10:11+00:00,8.1527299880981,1,Mixed_Stim.csv,READVersionA.csv,"Read Mixed A","Read Mixed A",TOOL,SHED,BUFFER4,Buffer,178,101,STUDY,8,8,,Study/JOL,BUFFER4,8005,,,-1,-1,,,,1
10089008,qt7puxpdy6,Nick_Dissertation_EX2_EP,1,144,2022-05-04T21:10:19+00:00,8.1472160816193,1,Mixed_Stim.csv,READVersionA.csv,"Read Mixed A","Read Mixed A",MONTH,YEAR,BUFFER4,Buffer,177,98,STUDY,8,8,,Study/JOL,BUFFER4,8002,,,-1,-1,,,,1
10089008,qt7puxpdy6,Nick_Dissertation_EX2_EP,1,145,2022-05-04T21:10:27+00:00,8.1716899871826,1,Mixed_Stim.csv,READVersionA.csv,"Read Mixed A","Read Mixed A",DAYS,WEAKS,BUFFER4,Buffer,176,97,STUDY,8,8,,Study/JOL,BUFFER4,8002,,,-1,-1,,,,1
10089008,qt7puxpdy6,Nick_Dissertation_EX2_EP,1,146,2022-05-04T21:12:33+00:00,125.78477907181,1,Mixed_Stim.csv,READVersionA.csv,"Read Mixed A","Read Mixed A",,,,,,0,Instruct,User,-,"You have completed this section. Please press Enter.",Filler_Instruction,Instruct5,125623,,,-1,-1,,,,0.561
10089008,qt7puxpdy6,Nick_Dissertation_EX2_EP,1,147,2022-05-04T21:14:33+00:00,120.25896596909,1,Mixed_Stim.csv,READVersionA.csv,"Read Mixed A","Read Mixed A",,,,,,0,FreeRecall,120,120,"Please list the 50 US states in reverse alphabetical order (z - a). The task will automatically advance to the next screen after two minutes.",,Filler2,120005,"vermont washington utah oregon ",0,9030,69265,0,0,,1
10089008,qt7puxpdy6,Nick_Dissertation_EX2_EP,1,148,2022-05-04T21:14:44+00:00,10.666189908981,1,Mixed_Stim.csv,READVersionA.csv,"Read Mixed A","Read Mixed A",,,,,,0,Instruct,-,10,"You will now be presented with the first word from each of the previously studied item pairs. Please type the missing word. If you do not know the word, you may guess or press Enter to skip forward to the next pair.",,Instruct6,10506,,,-1,-1,,,,1
10089008,qt7puxpdy6,Nick_Dissertation_EX2_EP,1,149,2022-05-04T21:14:48+00:00,3.6212260723114,1,Mixed_Stim.csv,READVersionA.csv,"Read Mixed A","Read Mixed A",BOTH,OUNCE,Study2,U,172,67,Test,User,-,,Recall,Recall2,3480,same,22.222222222222,2631,3297,0,0,,1
10089008,qt7puxpdy6,Nick_Dissertation_EX2_EP,1,150,2022-05-04T21:14:52+00:00,3.9972589015961,1,Mixed_Stim.csv,READVersionA.csv,"Read Mixed A","Read Mixed A",NAME,HATE,Study2,U,167,81,Test,User,-,,Recall,Recall2,3858,last,50,2854,3712,0,0,,1
10089008,qt7puxpdy6,Nick_Dissertation_EX2_EP,1,151,2022-05-04T21:14:55+00:00,3.2956020832062,1,Mixed_Stim.csv,READVersionA.csv,"Read Mixed A","Read Mixed A",CHOP,CUT,Study2,F,107,70,Test,User,-,,Recall,Recall2,3163,pork,0,1471,2979,0,0,,1
10089008,qt7puxpdy6,Nick_Dissertation_EX2_EP,1,152,2022-05-04T21:14:57+00:00,2.5202870368958,1,Mixed_Stim.csv,READVersionA.csv,"Read Mixed A","Read Mixed A",LEASE,TOIL,Study2,U,170,64,Test,User,-,,Recall,Recall2,2381,rent,25,1819,2242,0,0,,1
10089008,qt7puxpdy6,Nick_Dissertation_EX2_EP,1,153,2022-05-04T21:15:00+00:00,2.371435880661,1,Mixed_Stim.csv,READVersionA.csv,"Read Mixed A","Read Mixed A",CLUE,GAME,Study2,F,97,90,Test,User,-,,Recall,Recall2,2237,less,25,1238,1918,0,0,,1
10089008,qt7puxpdy6,Nick_Dissertation_EX2_EP,1,154,2022-05-04T21:15:02+00:00,1.9318151473999,1,Mixed_Stim.csv,READVersionA.csv,"Read Mixed A","Read Mixed A",CACTUS,PLANT,Study2,F,98,73,Test,User,-,,Recall,Recall2,1781,plant,100,1021,1628,1,1,,1
10089008,qt7puxpdy6,Nick_Dissertation_EX2_EP,1,155,2022-05-04T21:15:07+00:00,4.8528568744659,1,Mixed_Stim.csv,READVersionA.csv,"Read Mixed A","Read Mixed A",DETECTIVE,MYSTERY,Study2,F,100,74,Test,User,-,,Recall,Recall2,4691,police,15.384615384615,3726,4559,0,0,,1
10089008,qt7puxpdy6,Nick_Dissertation_EX2_EP,1,156,2022-05-04T21:15:11+00:00,4.456013917923,1,Mixed_Stim.csv,READVersionA.csv,"Read Mixed A","Read Mixed A",MIRROR,CHILDREN,Study2,U,174,92,Test,User,-,,Recall,Recall2,4324,face,33.333333333333,1538,4119,0,0,,1
10089008,qt7puxpdy6,Nick_Dissertation_EX2_EP,1,157,2022-05-04T21:15:14+00:00,3.0151569843292,1,Mixed_Stim.csv,READVersionA.csv,"Read Mixed A","Read Mixed A",SHEARS,SCISSORS,Study2,F,112,96,Test,User,-,,Recall,Recall2,2878,scissors,100,1051,2728,1,1,,1
10089008,qt7puxpdy6,Nick_Dissertation_EX2_EP,1,158,2022-05-04T21:15:16+00:00,2.4596560001373,1,Mixed_Stim.csv,READVersionA.csv,"Read Mixed A","Read Mixed A",SCALP,HEAD,Study2,F,105,89,Test,User,-,,Recall,Recall2,2332,head,100,1418,2184,1,1,,1
10089008,qt7puxpdy6,Nick_Dissertation_EX2_EP,1,159,2022-05-04T21:15:19+00:00,2.12655210495,1,Mixed_Stim.csv,READVersionA.csv,"Read Mixed A","Read Mixed A",CHILL,COLD,Study2,F,114,76,Test,User,-,,Recall,Recall2,1968,mode,50,1531,1802,0,0,,1
10089008,qt7puxpdy6,Nick_Dissertation_EX2_EP,1,160,2022-05-04T21:15:21+00:00,2.5936439037323,1,Mixed_Stim.csv,READVersionA.csv,"Read Mixed A","Read Mixed A",Shell,SHAKE,Study2,U,163,84,Test,User,-,,Recall,Recall2,2157,gas,25,1768,2007,0,0,,1
10089008,qt7puxpdy6,Nick_Dissertation_EX2_EP,1,161,2022-05-04T21:15:23+00:00,1.7870790958405,1,Mixed_Stim.csv,READVersionA.csv,"Read Mixed A","Read Mixed A",KEYS,JOKE,Study2,U,165,71,Test,User,-,,Recall,Recall2,1572,car,0,1101,1451,0,0,,1
10089008,qt7puxpdy6,Nick_Dissertation_EX2_EP,1,162,2022-05-04T21:15:27+00:00,3.802129983902,1,Mixed_Stim.csv,READVersionA.csv,"Read Mixed A","Read Mixed A",DOCUMENT,PAPER,Study2,F,109,63,Test,User,-,,Recall,Recall2,3669,news,22.222222222222,3012,3548,0,0,,1
10089008,qt7puxpdy6,Nick_Dissertation_EX2_EP,1,163,2022-05-04T21:15:30+00:00,3.3801801204681,1,Mixed_Stim.csv,READVersionA.csv,"Read Mixed A","Read Mixed A",FEUD,FIGHT,Study2,F,113,75,Test,User,-,,Recall,Recall2,3222,family,36.363636363636,1139,2996,0,0,,1
10089008,qt7puxpdy6,Nick_Dissertation_EX2_EP,1,164,2022-05-04T21:15:33+00:00,3.1823589801788,1,Mixed_Stim.csv,READVersionA.csv,"Read Mixed A","Read Mixed A",SWAN,BIRD,Study1,F,14,23,Test,User,-,,Recall,Recall2,3030,lake,0,1072,1975,0,0,,1
10089008,qt7puxpdy6,Nick_Dissertation_EX2_EP,1,165,2022-05-04T21:15:37+00:00,3.919538974762,1,Mixed_Stim.csv,READVersionA.csv,"Read Mixed A","Read Mixed A",LITTER,TRASH,Study2,F,103,68,Test,User,-,,Recall,Recall2,3748,trash,100,1366,3190,1,1,,1
10089008,qt7puxpdy6,Nick_Dissertation_EX2_EP,1,166,2022-05-04T21:15:42+00:00,4.2934749126434,1,Mixed_Stim.csv,READVersionA.csv,"Read Mixed A","Read Mixed A",LISTEN,FICTION,Study2,U,164,95,Test,User,-,,Recall,Recall2,4160,hear,0,2865,3956,0,0,,1
10089008,qt7puxpdy6,Nick_Dissertation_EX2_EP,1,167,2022-05-04T21:15:44+00:00,2.2323091030121,1,Mixed_Stim.csv,READVersionA.csv,"Read Mixed A","Read Mixed A",FUZZY,BANG,Study2,U,168,85,Test,User,-,,Recall,Recall2,2065,bear,50,1390,1893,0,0,,1
10089008,qt7puxpdy6,Nick_Dissertation_EX2_EP,1,168,2022-05-04T21:15:51+00:00,6.8198130130768,1,Mixed_Stim.csv,READVersionA.csv,"Read Mixed A","Read Mixed A",FURRY,DOG,Study2,F,102,66,Test,User,-,,Recall,Recall2,6674,rug,33.333333333333,6226,6504,0,0,,1
10089008,qt7puxpdy6,Nick_Dissertation_EX2_EP,1,169,2022-05-04T21:15:54+00:00,2.9310929775238,1,Mixed_Stim.csv,READVersionA.csv,"Read Mixed A","Read Mixed A",CRACKLE,ABLE,Study2,U,162,79,Test,User,-,,Recall,Recall2,2783,popcorn,0,1560,2441,0,0,,1
10089008,qt7puxpdy6,Nick_Dissertation_EX2_EP,1,170,2022-05-04T21:15:58+00:00,4.3004388809204,1,Mixed_Stim.csv,READVersionA.csv,"Read Mixed A","Read Mixed A",MAIN,SCAR,Study2,U,175,72,Test,User,-,,Recall,Recall2,4157,side,25,3677,4024,0,0,,1
10089008,qt7puxpdy6,Nick_Dissertation_EX2_EP,1,171,2022-05-04T21:16:00+00:00,1.83735704422,1,Mixed_Stim.csv,READVersionA.csv,"Read Mixed A","Read Mixed A",CHERRY,RED,Study2,F,104,87,Test,User,-,,Recall,Recall2,1703,pop,0,900,1152,0,0,,1
10089008,qt7puxpdy6,Nick_Dissertation_EX2_EP,1,172,2022-05-04T21:16:02+00:00,2.4076781272888,1,Mixed_Stim.csv,READVersionA.csv,"Read Mixed A","Read Mixed A",DRIVER,CAR,Study2,F,106,65,Test,User,-,,Recall,Recall2,2273,license,20,1100,2117,0,0,,1
10089008,qt7puxpdy6,Nick_Dissertation_EX2_EP,1,173,2022-05-04T21:16:07+00:00,4.9463958740234,1,Mixed_Stim.csv,READVersionA.csv,"Read Mixed A","Read Mixed A",TEMPERATURE,Morning,Study2,U,173,59,Test,User,-,,Recall,Recall2,4808,rising,61.538461538462,3946,4662,0,0,,1
10089008,qt7puxpdy6,Nick_Dissertation_EX2_EP,1,174,2022-05-04T21:16:10+00:00,2.9140150547028,1,Mixed_Stim.csv,READVersionA.csv,"Read Mixed A","Read Mixed A",LOAN,SIGN,Study2,U,171,82,Test,User,-,,Recall,Recall2,2767,entrance,16.666666666667,1361,2589,0,0,,1
10089008,qt7puxpdy6,Nick_Dissertation_EX2_EP,1,175,2022-05-04T21:16:13+00:00,3.4740519523621,1,Mixed_Stim.csv,READVersionA.csv,"Read Mixed A","Read Mixed A",MAZE,ELECTION,Study2,U,159,60,Test,User,-,,Recall,Recall2,3343,puzzle,28.571428571429,2176,3180,0,0,,1
10089008,qt7puxpdy6,Nick_Dissertation_EX2_EP,1,176,2022-05-04T21:16:16+00:00,2.5762279033661,1,Mixed_Stim.csv,READVersionA.csv,"Read Mixed A","Read Mixed A",MEAT,OBTAIN,Study2,U,161,80,Test,User,-,,Recall,Recall2,2421,vegan,36.363636363636,1699,2216,0,0,,1
10089008,qt7puxpdy6,Nick_Dissertation_EX2_EP,1,177,2022-05-04T21:16:18+00:00,2.0390791893005,1,Mixed_Stim.csv,READVersionA.csv,"Read Mixed A","Read Mixed A",GIVE,STEAK,Study2,U,158,69,Test,User,-,,Recall,Recall2,1894,on,0,1581,1712,0,0,,1
10089008,qt7puxpdy6,Nick_Dissertation_EX2_EP,1,178,2022-05-04T21:16:20+00:00,2.0195419788361,1,Mixed_Stim.csv,READVersionA.csv,"Read Mixed A","Read Mixed A",TEMPERATURE,Morning,Study2,U,173,59,Test,User,-,,Recall,Recall2,1872,hpt,0,1400,1764,0,0,,1
10089008,qt7puxpdy6,Nick_Dissertation_EX2_EP,1,179,2022-05-04T21:16:24+00:00,3.5194430351257,1,Mixed_Stim.csv,READVersionA.csv,"Read Mixed A","Read Mixed A",DINE,EAT,Study2,F,111,77,Test,User,-,,Recall,Recall2,3359,dash,28.571428571429,2455,3152,0,0,,1
10089008,qt7puxpdy6,Nick_Dissertation_EX2_EP,1,180,2022-05-04T21:16:26+00:00,2.7587049007416,1,Mixed_Stim.csv,READVersionA.csv,"Read Mixed A","Read Mixed A",EXTENSION,LONG,Study2,F,96,88,Test,User,-,,Recall,Recall2,2621,lashes,20,1700,2464,0,0,,1
10089008,qt7puxpdy6,Nick_Dissertation_EX2_EP,1,181,2022-05-04T21:16:30+00:00,3.9429180622101,1,Mixed_Stim.csv,READVersionA.csv,"Read Mixed A","Read Mixed A",SHOELACE,TIE,Study2,F,99,94,Test,User,-,,Recall,Recall2,3796,toes,57.142857142857,3175,3630,0,0,,1
10089008,qt7puxpdy6,Nick_Dissertation_EX2_EP,1,182,2022-05-04T21:16:32+00:00,2.0075058937073,1,Mixed_Stim.csv,READVersionA.csv,"Read Mixed A","Read Mixed A",AFFECTION,LOVE,Study2,F,115,78,Test,User,-,,Recall,Recall2,1863,love,100,1044,1504,1,1,,1
10089008,qt7puxpdy6,Nick_Dissertation_EX2_EP,1,183,2022-05-04T21:16:34+00:00,2.1856679916382,1,Mixed_Stim.csv,READVersionA.csv,"Read Mixed A","Read Mixed A",MULE,DONKEY,Study2,F,108,93,Test,User,-,,Recall,Recall2,2039,donkey,100,1039,1856,1,1,,1
10089008,qt7puxpdy6,Nick_Dissertation_EX2_EP,1,184,2022-05-04T21:16:37+00:00,2.7295250892639,1,Mixed_Stim.csv,READVersionA.csv,"Read Mixed A","Read Mixed A",JUSTICE,MAROON,Study2,U,156,91,Test,User,-,,Recall,Recall2,2594,peace,18.181818181818,1684,2398,0,0,,1
10089008,qt7puxpdy6,Nick_Dissertation_EX2_EP,1,185,2022-05-04T21:16:40+00:00,2.8141260147095,1,Mixed_Stim.csv,READVersionA.csv,"Read Mixed A","Read Mixed A",INCENSE,SMELL,Study2,F,110,86,Test,User,-,,Recall,Recall2,2680,smoke,60,1747,2579,0,0,,1
10089008,qt7puxpdy6,Nick_Dissertation_EX2_EP,1,186,2022-05-04T21:16:43+00:00,3.2775700092316,1,Mixed_Stim.csv,READVersionA.csv,"Read Mixed A","Read Mixed A",MOAT,CLEAR,Study2,U,169,57,Test,User,-,,Recall,Recall2,3145,castle,54.545454545455,2144,2993,0,0,,1
10089008,qt7puxpdy6,Nick_Dissertation_EX2_EP,1,187,2022-05-04T21:16:46+00:00,2.2533059120178,1,Mixed_Stim.csv,READVersionA.csv,"Read Mixed A","Read Mixed A",VEHICLE,CHARM,Study2,U,160,62,Test,User,-,,Recall,Recall2,2117,driver,18.181818181818,1277,1969,0,0,,1
10089008,qt7puxpdy6,Nick_Dissertation_EX2_EP,1,188,2022-05-04T21:16:47+00:00,1.9171149730682,1,Mixed_Stim.csv,READVersionA.csv,"Read Mixed A","Read Mixed A",CAKE,CLOTHES,Study2,U,166,61,Test,User,-,,Recall,Recall2,1752,pop,20,1282,1505,0,0,,1
10089008,qt7puxpdy6,Nick_Dissertation_EX2_EP,1,189,2022-05-04T21:16:49+00:00,1.9067189693451,1,Mixed_Stim.csv,READVersionA.csv,"Read Mixed A","Read Mixed A",,,,,,0,Instruct,User,-,"You have completed this section. Please press Enter.",,Instruct7,1762,,,-1,-1,,,,1
10089008,qt7puxpdy6,Nick_Dissertation_EX2_EP,1,190,2022-05-04T21:16:51+00:00,1.4439001083374,1,Mixed_Stim.csv,READVersionA.csv,"Read Mixed A","Read Mixed A",,,,,,0,Instruct,User,-,"The following screen will ask you a few questions abour your experience today. You must complete these questions to receive credit.",,Instruct8,1311,,,-1,-1,,,,1
