Username,ID,ExperimentName,Session,Trial,Date,TimeDif,"Condition Number","Stimuli File","Order File","Condition Description","Condition Notes",Stimuli*Cue,Stimuli*Answer,Stimuli*Shuffle,"Stimuli*Stimuli Notes",Stimuli*Value,Procedure*Item,"Procedure*Trial Type","Procedure*Max Time","Procedure*Min Time",Procedure*Text,"Procedure*Procedure Notes",Procedure*Shuffle,Response*RT,Response*Response,Response*Accuracy,Response*RTfirst,Response*RTlast,Response*strictAcc,Response*lenientAcc,Response*focus,Response*Focus
w10066921_anl,lrz1z69vnd,Nick_Dissertation_EX2_EP,1,1,2021-08-29T09:57:28-07:00,11.244184970856,2,Mixed_Stim.csv,READVersionB.csv,"Read Mixed B","Read Mixed B",,,,,,0,Instruct,-,10,"Please study each of the following word pairs. Remember that your memory will be tested! Each pair will be displayed on the computer screen and will automatically advance to the next pair. Press ENTER when you are ready to begin.",Initial_Instruct,Instruct1,10976,,,-1,-1,,,,1
w10066921_anl,lrz1z69vnd,Nick_Dissertation_EX2_EP,1,2,2021-08-29T09:57:36-07:00,8.3145580291748,2,Mixed_Stim.csv,READVersionB.csv,"Read Mixed B","Read Mixed B",ICE,FROZEN,BUFFER3,Buffer,94,52,STUDY,8,8,,Study/JOL,BUFFER,8003,,,-1,-1,,,,1
w10066921_anl,lrz1z69vnd,Nick_Dissertation_EX2_EP,1,3,2021-08-29T09:57:45-07:00,8.3148169517517,2,Mixed_Stim.csv,READVersionB.csv,"Read Mixed B","Read Mixed B",NOODLE,STRING,BUFFER3,Buffer,92,55,STUDY,8,8,,Study/JOL,BUFFER,8002,,,-1,-1,,,,1
w10066921_anl,lrz1z69vnd,Nick_Dissertation_EX2_EP,1,4,2021-08-29T09:57:53-07:00,8.2859580516815,2,Mixed_Stim.csv,READVersionB.csv,"Read Mixed B","Read Mixed B",SHRIMP,FISH,BUFFER3,Buffer,93,56,STUDY,8,8,,Study/JOL,BUFFER,8001,,,-1,-1,,,,1
w10066921_anl,lrz1z69vnd,Nick_Dissertation_EX2_EP,1,5,2021-08-29T09:58:01-07:00,8.3028531074524,2,Mixed_Stim.csv,READVersionB.csv,"Read Mixed B","Read Mixed B",CARROT,POTATO,BUFFER3,Buffer,91,54,STUDY,8,8,,Study/JOL,BUFFER,8004,,,-1,-1,,,,1
w10066921_anl,lrz1z69vnd,Nick_Dissertation_EX2_EP,1,6,2021-08-29T09:58:09-07:00,8.2972428798676,2,Mixed_Stim.csv,READVersionB.csv,"Read Mixed B","Read Mixed B",CAMP,ADVENTURE,BUFFER3,Buffer,95,53,STUDY,8,8,,Study/JOL,BUFFER,8002,,,-1,-1,,,,1
w10066921_anl,lrz1z69vnd,Nick_Dissertation_EX2_EP,1,7,2021-08-29T09:58:18-07:00,8.2892279624939,2,Mixed_Stim.csv,READVersionB.csv,"Read Mixed B","Read Mixed B",LISTEN,FICTION,Study2,U,164,68,STUDY,8,8,,Study/JOL,"Study Phase",8001,,,-1,-1,,,,1
w10066921_anl,lrz1z69vnd,Nick_Dissertation_EX2_EP,1,8,2021-08-29T09:58:26-07:00,8.2886161804199,2,Mixed_Stim.csv,READVersionB.csv,"Read Mixed B","Read Mixed B",ADJOURN,END,Study2,F,101,93,STUDY,8,8,,Study/JOL,"Study Phase",8000,,,-1,-1,,,,1
w10066921_anl,lrz1z69vnd,Nick_Dissertation_EX2_EP,1,9,2021-08-29T09:58:34-07:00,8.3216819763184,2,Mixed_Stim.csv,READVersionB.csv,"Read Mixed B","Read Mixed B",DETECTIVE,MYSTERY,Study2,F,100,95,STUDY,8,8,,Study/JOL,"Study Phase",8002,,,-1,-1,,,,1
w10066921_anl,lrz1z69vnd,Nick_Dissertation_EX2_EP,1,10,2021-08-29T09:58:43-07:00,8.3112978935242,2,Mixed_Stim.csv,READVersionB.csv,"Read Mixed B","Read Mixed B",AFFECTION,LOVE,Study2,F,115,87,STUDY,8,8,,Study/JOL,"Study Phase",8001,,,-1,-1,,,,1
w10066921_anl,lrz1z69vnd,Nick_Dissertation_EX2_EP,1,11,2021-08-29T09:58:51-07:00,8.2985730171204,2,Mixed_Stim.csv,READVersionB.csv,"Read Mixed B","Read Mixed B",DOCUMENT,PAPER,Study2,F,109,92,STUDY,8,8,,Study/JOL,"Study Phase",8002,,,-1,-1,,,,1
w10066921_anl,lrz1z69vnd,Nick_Dissertation_EX2_EP,1,12,2021-08-29T09:58:59-07:00,8.2941789627075,2,Mixed_Stim.csv,READVersionB.csv,"Read Mixed B","Read Mixed B",SHEARS,SCISSORS,Study2,F,112,96,STUDY,8,8,,Study/JOL,"Study Phase",8003,,,-1,-1,,,,1
w10066921_anl,lrz1z69vnd,Nick_Dissertation_EX2_EP,1,13,2021-08-29T09:59:08-07:00,8.303994178772,2,Mixed_Stim.csv,READVersionB.csv,"Read Mixed B","Read Mixed B",NAME,HATE,Study2,U,167,84,STUDY,8,8,,Study/JOL,"Study Phase",8002,,,-1,-1,,,,1
w10066921_anl,lrz1z69vnd,Nick_Dissertation_EX2_EP,1,14,2021-08-29T09:59:16-07:00,8.294853925705,2,Mixed_Stim.csv,READVersionB.csv,"Read Mixed B","Read Mixed B",LITTER,TRASH,Study2,F,103,67,STUDY,8,8,,Study/JOL,"Study Phase",8000,,,-1,-1,,,,1
w10066921_anl,lrz1z69vnd,Nick_Dissertation_EX2_EP,1,15,2021-08-29T09:59:24-07:00,8.3119070529938,2,Mixed_Stim.csv,READVersionB.csv,"Read Mixed B","Read Mixed B",CHERRY,RED,Study2,F,104,94,STUDY,8,8,,Study/JOL,"Study Phase",8002,,,-1,-1,,,,1
w10066921_anl,lrz1z69vnd,Nick_Dissertation_EX2_EP,1,16,2021-08-29T09:59:32-07:00,8.3141348361969,2,Mixed_Stim.csv,READVersionB.csv,"Read Mixed B","Read Mixed B",INCENSE,SMELL,Study2,F,110,64,STUDY,8,8,,Study/JOL,"Study Phase",8004,,,-1,-1,,,,1
w10066921_anl,lrz1z69vnd,Nick_Dissertation_EX2_EP,1,17,2021-08-29T09:59:41-07:00,8.2980220317841,2,Mixed_Stim.csv,READVersionB.csv,"Read Mixed B","Read Mixed B",MOAT,CLEAR,Study2,U,169,86,STUDY,8,8,,Study/JOL,"Study Phase",8003,,,-1,-1,,,,1
w10066921_anl,lrz1z69vnd,Nick_Dissertation_EX2_EP,1,18,2021-08-29T09:59:49-07:00,8.2911369800568,2,Mixed_Stim.csv,READVersionB.csv,"Read Mixed B","Read Mixed B",KEYS,JOKE,Study2,U,165,59,STUDY,8,8,,Study/JOL,"Study Phase",8002,,,-1,-1,,,,1
w10066921_anl,lrz1z69vnd,Nick_Dissertation_EX2_EP,1,19,2021-08-29T09:59:57-07:00,8.2989580631256,2,Mixed_Stim.csv,READVersionB.csv,"Read Mixed B","Read Mixed B",LOAN,SIGN,Study2,U,171,71,STUDY,8,8,,Study/JOL,"Study Phase",8001,,,-1,-1,,,,1
w10066921_anl,lrz1z69vnd,Nick_Dissertation_EX2_EP,1,20,2021-08-29T10:00:06-07:00,8.3096690177917,2,Mixed_Stim.csv,READVersionB.csv,"Read Mixed B","Read Mixed B",CLUE,GAME,Study2,F,97,69,STUDY,8,8,,Study/JOL,"Study Phase",8002,,,-1,-1,,,,1
w10066921_anl,lrz1z69vnd,Nick_Dissertation_EX2_EP,1,21,2021-08-29T10:00:14-07:00,8.293888092041,2,Mixed_Stim.csv,READVersionB.csv,"Read Mixed B","Read Mixed B",CACTUS,PLANT,Study2,F,98,74,STUDY,8,8,,Study/JOL,"Study Phase",8000,,,-1,-1,,,,1
w10066921_anl,lrz1z69vnd,Nick_Dissertation_EX2_EP,1,22,2021-08-29T10:00:22-07:00,8.305624961853,2,Mixed_Stim.csv,READVersionB.csv,"Read Mixed B","Read Mixed B",LEASE,TOIL,Study2,U,170,79,STUDY,8,8,,Study/JOL,"Study Phase",8000,,,-1,-1,,,,1
w10066921_anl,lrz1z69vnd,Nick_Dissertation_EX2_EP,1,23,2021-08-29T10:00:31-07:00,8.3019769191742,2,Mixed_Stim.csv,READVersionB.csv,"Read Mixed B","Read Mixed B",GIVE,STEAK,Study2,U,158,77,STUDY,8,8,,Study/JOL,"Study Phase",8003,,,-1,-1,,,,1
w10066921_anl,lrz1z69vnd,Nick_Dissertation_EX2_EP,1,24,2021-08-29T10:00:39-07:00,8.311096906662,2,Mixed_Stim.csv,READVersionB.csv,"Read Mixed B","Read Mixed B",BOTH,OUNCE,Study2,U,172,80,STUDY,8,8,,Study/JOL,"Study Phase",8001,,,-1,-1,,,,1
w10066921_anl,lrz1z69vnd,Nick_Dissertation_EX2_EP,1,25,2021-08-29T10:00:47-07:00,8.2934441566467,2,Mixed_Stim.csv,READVersionB.csv,"Read Mixed B","Read Mixed B",TEMPERATURE,Morning,Study2,U,173,76,STUDY,8,8,,Study/JOL,"Study Phase",8002,,,-1,-1,,,,1
w10066921_anl,lrz1z69vnd,Nick_Dissertation_EX2_EP,1,26,2021-08-29T10:00:55-07:00,8.3008198738098,2,Mixed_Stim.csv,READVersionB.csv,"Read Mixed B","Read Mixed B",KEYS,JOKE,Study2,U,165,59,STUDY,8,8,,Study/JOL,"Study Phase",8001,,,-1,-1,,,,1
w10066921_anl,lrz1z69vnd,Nick_Dissertation_EX2_EP,1,27,2021-08-29T10:01:04-07:00,8.3095660209656,2,Mixed_Stim.csv,READVersionB.csv,"Read Mixed B","Read Mixed B",FEUD,FIGHT,Study2,F,113,65,STUDY,8,8,,Study/JOL,"Study Phase",8002,,,-1,-1,,,,1
w10066921_anl,lrz1z69vnd,Nick_Dissertation_EX2_EP,1,28,2021-08-29T10:01:12-07:00,8.2916741371155,2,Mixed_Stim.csv,READVersionB.csv,"Read Mixed B","Read Mixed B",STRETCH,CLOTH,Study2,U,157,91,STUDY,8,8,,Study/JOL,"Study Phase",8002,,,-1,-1,,,,1
w10066921_anl,lrz1z69vnd,Nick_Dissertation_EX2_EP,1,29,2021-08-29T10:01:20-07:00,8.2989938259125,2,Mixed_Stim.csv,READVersionB.csv,"Read Mixed B","Read Mixed B",ROOT,PLANT,Study1,F,13,23,STUDY,8,8,,Study/JOL,"Study Phase",8001,,,-1,-1,,,,1
w10066921_anl,lrz1z69vnd,Nick_Dissertation_EX2_EP,1,30,2021-08-29T10:01:29-07:00,8.2990670204163,2,Mixed_Stim.csv,READVersionB.csv,"Read Mixed B","Read Mixed B",MULE,DONKEY,Study2,F,108,61,STUDY,8,8,,Study/JOL,"Study Phase",8001,,,-1,-1,,,,1
w10066921_anl,lrz1z69vnd,Nick_Dissertation_EX2_EP,1,31,2021-08-29T10:01:37-07:00,8.6601979732513,2,Mixed_Stim.csv,READVersionB.csv,"Read Mixed B","Read Mixed B",FUZZY,BANG,Study2,U,168,89,STUDY,8,8,,Study/JOL,"Study Phase",8354,,,-1,-1,,,,0.579
w10066921_anl,lrz1z69vnd,Nick_Dissertation_EX2_EP,1,32,2021-08-29T10:01:46-07:00,8.6443691253662,2,Mixed_Stim.csv,READVersionB.csv,"Read Mixed B","Read Mixed B",VEHICLE,CHARM,Study2,U,160,82,STUDY,8,8,,Study/JOL,"Study Phase",8332,,,-1,-1,,,,0
w10066921_anl,lrz1z69vnd,Nick_Dissertation_EX2_EP,1,33,2021-08-29T10:01:55-07:00,9.4826209545135,2,Mixed_Stim.csv,READVersionB.csv,"Read Mixed B","Read Mixed B",SHOELACE,TIE,Study2,F,99,60,STUDY,8,8,,Study/JOL,"Study Phase",9180,,,-1,-1,,,,0
w10066921_anl,lrz1z69vnd,Nick_Dissertation_EX2_EP,1,34,2021-08-29T10:02:04-07:00,8.5519690513611,2,Mixed_Stim.csv,READVersionB.csv,"Read Mixed B","Read Mixed B",Shell,SHAKE,Study2,U,163,57,STUDY,8,8,,Study/JOL,"Study Phase",8241,,,-1,-1,,,,0
w10066921_anl,lrz1z69vnd,Nick_Dissertation_EX2_EP,1,35,2021-08-29T10:02:12-07:00,8.3358759880066,2,Mixed_Stim.csv,READVersionB.csv,"Read Mixed B","Read Mixed B",SCALP,HEAD,Study2,F,105,63,STUDY,8,8,,Study/JOL,"Study Phase",8002,,,-1,-1,,,,0.727
w10066921_anl,lrz1z69vnd,Nick_Dissertation_EX2_EP,1,36,2021-08-29T10:02:21-07:00,8.3085920810699,2,Mixed_Stim.csv,READVersionB.csv,"Read Mixed B","Read Mixed B",MIRROR,CHILDREN,Study2,U,174,72,STUDY,8,8,,Study/JOL,"Study Phase",8001,,,-1,-1,,,,1
w10066921_anl,lrz1z69vnd,Nick_Dissertation_EX2_EP,1,37,2021-08-29T10:02:30-07:00,9.2706508636475,2,Mixed_Stim.csv,READVersionB.csv,"Read Mixed B","Read Mixed B",CAKE,CLOTHES,Study2,U,166,78,STUDY,8,8,,Study/JOL,"Study Phase",8003,,,-1,-1,,,,1
w10066921_anl,lrz1z69vnd,Nick_Dissertation_EX2_EP,1,38,2021-08-29T10:02:38-07:00,8.3049590587616,2,Mixed_Stim.csv,READVersionB.csv,"Read Mixed B","Read Mixed B",DINE,EAT,Study2,F,111,73,STUDY,8,8,,Study/JOL,"Study Phase",8002,,,-1,-1,,,,1
w10066921_anl,lrz1z69vnd,Nick_Dissertation_EX2_EP,1,39,2021-08-29T10:02:47-07:00,8.2894880771637,2,Mixed_Stim.csv,READVersionB.csv,"Read Mixed B","Read Mixed B",DRIVER,CAR,Study2,F,106,66,STUDY,8,8,,Study/JOL,"Study Phase",8000,,,-1,-1,,,,1
w10066921_anl,lrz1z69vnd,Nick_Dissertation_EX2_EP,1,40,2021-08-29T10:02:55-07:00,8.2893459796906,2,Mixed_Stim.csv,READVersionB.csv,"Read Mixed B","Read Mixed B",CHILL,COLD,Study2,F,114,62,STUDY,8,8,,Study/JOL,"Study Phase",8001,,,-1,-1,,,,1
w10066921_anl,lrz1z69vnd,Nick_Dissertation_EX2_EP,1,41,2021-08-29T10:03:03-07:00,8.288370847702,2,Mixed_Stim.csv,READVersionB.csv,"Read Mixed B","Read Mixed B",JUSTICE,MAROON,Study2,U,156,75,STUDY,8,8,,Study/JOL,"Study Phase",8000,,,-1,-1,,,,1
w10066921_anl,lrz1z69vnd,Nick_Dissertation_EX2_EP,1,42,2021-08-29T10:03:11-07:00,8.2893781661987,2,Mixed_Stim.csv,READVersionB.csv,"Read Mixed B","Read Mixed B",FURRY,DOG,Study2,F,102,81,STUDY,8,8,,Study/JOL,"Study Phase",8000,,,-1,-1,,,,1
w10066921_anl,lrz1z69vnd,Nick_Dissertation_EX2_EP,1,43,2021-08-29T10:03:20-07:00,8.6545748710632,2,Mixed_Stim.csv,READVersionB.csv,"Read Mixed B","Read Mixed B",CRACKLE,ABLE,Study2,U,162,88,STUDY,8,8,,Study/JOL,"Study Phase",8361,,,-1,-1,,,,0.857
w10066921_anl,lrz1z69vnd,Nick_Dissertation_EX2_EP,1,44,2021-08-29T10:03:29-07:00,9.0029170513153,2,Mixed_Stim.csv,READVersionB.csv,"Read Mixed B","Read Mixed B",MAIN,SCAR,Study2,U,175,85,STUDY,8,8,,Study/JOL,"Study Phase",8720,,,-1,-1,,,,0
w10066921_anl,lrz1z69vnd,Nick_Dissertation_EX2_EP,1,45,2021-08-29T10:03:37-07:00,8.3325779438019,2,Mixed_Stim.csv,READVersionB.csv,"Read Mixed B","Read Mixed B",MEAT,OBTAIN,Study2,U,161,90,STUDY,8,8,,Study/JOL,"Study Phase",8001,,,-1,-1,,,,0.875
w10066921_anl,lrz1z69vnd,Nick_Dissertation_EX2_EP,1,46,2021-08-29T10:03:46-07:00,8.3879389762878,2,Mixed_Stim.csv,READVersionB.csv,"Read Mixed B","Read Mixed B",MAZE,ELECTION,Study2,U,159,70,STUDY,8,8,,Study/JOL,"Study Phase",8002,,,-1,-1,,,,1
w10066921_anl,lrz1z69vnd,Nick_Dissertation_EX2_EP,1,47,2021-08-29T10:03:54-07:00,8.4721040725708,2,Mixed_Stim.csv,READVersionB.csv,"Read Mixed B","Read Mixed B",TOOL,SHED,BUFFER4,Buffer,178,100,STUDY,8,8,,Study/JOL,BUFFER2,8000,,,-1,-1,,,,1
w10066921_anl,lrz1z69vnd,Nick_Dissertation_EX2_EP,1,48,2021-08-29T10:04:03-07:00,8.2822840213776,2,Mixed_Stim.csv,READVersionB.csv,"Read Mixed B","Read Mixed B",SPRING,MARCH,BUFFER4,Buffer,179,99,STUDY,8,8,,Study/JOL,BUFFER2,8001,,,-1,-1,,,,1
w10066921_anl,lrz1z69vnd,Nick_Dissertation_EX2_EP,1,49,2021-08-29T10:04:11-07:00,8.3108968734741,2,Mixed_Stim.csv,READVersionB.csv,"Read Mixed B","Read Mixed B",DAYS,WEAKS,BUFFER4,Buffer,176,97,STUDY,8,8,,Study/JOL,BUFFER2,8001,,,-1,-1,,,,1
w10066921_anl,lrz1z69vnd,Nick_Dissertation_EX2_EP,1,50,2021-08-29T10:04:19-07:00,8.2989761829376,2,Mixed_Stim.csv,READVersionB.csv,"Read Mixed B","Read Mixed B",MONTH,YEAR,BUFFER4,Buffer,177,101,STUDY,8,8,,Study/JOL,BUFFER2,8002,,,-1,-1,,,,1
w10066921_anl,lrz1z69vnd,Nick_Dissertation_EX2_EP,1,51,2021-08-29T10:04:27-07:00,8.3044090270996,2,Mixed_Stim.csv,READVersionB.csv,"Read Mixed B","Read Mixed B",OCTOBER,SPOOKY,BUFFER4,Buffer,180,98,STUDY,8,8,,Study/JOL,BUFFER2,8000,,,-1,-1,,,,1
w10066921_anl,lrz1z69vnd,Nick_Dissertation_EX2_EP,1,52,2021-08-29T10:04:30-07:00,2.4774918556213,2,Mixed_Stim.csv,READVersionB.csv,"Read Mixed B","Read Mixed B",,,,,,0,Instruct,User,-,"You have completed this section. Please press Enter.",Filler_Instruction,Instruct2,2189,,,-1,-1,,,,1
w10066921_anl,lrz1z69vnd,Nick_Dissertation_EX2_EP,1,53,2021-08-29T10:06:30-07:00,120.56119394302,2,Mixed_Stim.csv,READVersionB.csv,"Read Mixed B","Read Mixed B",,,,,,0,FreeRecall,120,120,"Please list the 50 US states in alphabetical order. The task will automatically advance to the next screen after two minutes.",,Filler1,120006,"alabama alaska arizona arkansa california colorado Connecticut deleware florida ",0,4094,119945,0,0,,0.941
w10066921_anl,lrz1z69vnd,Nick_Dissertation_EX2_EP,1,54,2021-08-29T10:06:43-07:00,12.07327914238,2,Mixed_Stim.csv,READVersionB.csv,"Read Mixed B","Read Mixed B",,,,,,0,Instruct,-,10,"You will now be presented with the first word from each of the previously studied item pairs. Please type the missing word. If you do not know the word, you may guess or press Enter to skip forward to the next pair.",,Instruct3,11696,,,-1,-1,,,,1
w10066921_anl,lrz1z69vnd,Nick_Dissertation_EX2_EP,1,55,2021-08-29T10:06:45-07:00,2.5596358776093,2,Mixed_Stim.csv,READVersionB.csv,"Read Mixed B","Read Mixed B",SHOELACE,TIE,Study2,F,99,60,Test,User,-,,Recall,Recall1,2252,tie,100,1917,2111,1,1,,1
w10066921_anl,lrz1z69vnd,Nick_Dissertation_EX2_EP,1,56,2021-08-29T10:06:50-07:00,4.7537851333618,2,Mixed_Stim.csv,READVersionB.csv,"Read Mixed B","Read Mixed B",LEASE,TOIL,Study2,U,170,79,Test,User,-,,Recall,Recall1,4456,appartment,14.285714285714,3095,4338,0,0,,1
w10066921_anl,lrz1z69vnd,Nick_Dissertation_EX2_EP,1,57,2021-08-29T10:06:52-07:00,1.6962540149689,2,Mixed_Stim.csv,READVersionB.csv,"Read Mixed B","Read Mixed B",NAME,HATE,Study2,U,167,84,Test,User,-,,Recall,Recall1,1408,hate,100,1002,1286,1,1,,1
w10066921_anl,lrz1z69vnd,Nick_Dissertation_EX2_EP,1,58,2021-08-29T10:06:54-07:00,2.2689909934998,2,Mixed_Stim.csv,READVersionB.csv,"Read Mixed B","Read Mixed B",MIRROR,CHILDREN,Study2,U,174,72,Test,User,-,,Recall,Recall1,1967,children,100,864,1749,1,1,,1
w10066921_anl,lrz1z69vnd,Nick_Dissertation_EX2_EP,1,59,2021-08-29T10:07:01-07:00,6.8855078220367,2,Mixed_Stim.csv,READVersionB.csv,"Read Mixed B","Read Mixed B",MEAT,OBTAIN,Study2,U,161,90,Test,User,-,,Recall,Recall1,6593,freezer,0,3228,6405,0,0,,1
w10066921_anl,lrz1z69vnd,Nick_Dissertation_EX2_EP,1,60,2021-08-29T10:07:06-07:00,5.491042137146,2,Mixed_Stim.csv,READVersionB.csv,"Read Mixed B","Read Mixed B",TEMPERATURE,Morning,Study2,U,173,76,Test,User,-,,Recall,Recall1,5193,hot,20,4372,4754,0,0,,1
w10066921_anl,lrz1z69vnd,Nick_Dissertation_EX2_EP,1,61,2021-08-29T10:07:08-07:00,1.5487689971924,2,Mixed_Stim.csv,READVersionB.csv,"Read Mixed B","Read Mixed B",GIVE,STEAK,Study2,U,158,77,Test,User,-,,Recall,Recall1,1255,,0,-1,-1,0,0,,1
w10066921_anl,lrz1z69vnd,Nick_Dissertation_EX2_EP,1,62,2021-08-29T10:07:14-07:00,5.9157099723816,2,Mixed_Stim.csv,READVersionB.csv,"Read Mixed B","Read Mixed B",SHEARS,SCISSORS,Study2,F,112,96,Test,User,-,,Recall,Recall1,5623,scissors,100,1144,5483,1,1,,1
w10066921_anl,lrz1z69vnd,Nick_Dissertation_EX2_EP,1,63,2021-08-29T10:07:17-07:00,3.3478870391846,2,Mixed_Stim.csv,READVersionB.csv,"Read Mixed B","Read Mixed B",DRIVER,CAR,Study2,F,106,66,Test,User,-,,Recall,Recall1,3042,car,100,2633,2878,1,1,,1
w10066921_anl,lrz1z69vnd,Nick_Dissertation_EX2_EP,1,64,2021-08-29T10:07:19-07:00,1.5239880084991,2,Mixed_Stim.csv,READVersionB.csv,"Read Mixed B","Read Mixed B",STRETCH,CLOTH,Study2,U,157,91,Test,User,-,,Recall,Recall1,1200,,0,-1,-1,0,0,,1
w10066921_anl,lrz1z69vnd,Nick_Dissertation_EX2_EP,1,65,2021-08-29T10:07:21-07:00,2.0379979610443,2,Mixed_Stim.csv,READVersionB.csv,"Read Mixed B","Read Mixed B",KEYS,JOKE,Study2,U,165,59,Test,User,-,,Recall,Recall1,1735,joke,100,901,1571,1,1,,1
w10066921_anl,lrz1z69vnd,Nick_Dissertation_EX2_EP,1,66,2021-08-29T10:07:22-07:00,1.4853889942169,2,Mixed_Stim.csv,READVersionB.csv,"Read Mixed B","Read Mixed B",MAIN,SCAR,Study2,U,175,85,Test,User,-,,Recall,Recall1,1192,,0,-1,-1,0,0,,1
w10066921_anl,lrz1z69vnd,Nick_Dissertation_EX2_EP,1,67,2021-08-29T10:07:25-07:00,2.9170389175415,2,Mixed_Stim.csv,READVersionB.csv,"Read Mixed B","Read Mixed B",DINE,EAT,Study2,F,111,73,Test,User,-,,Recall,Recall1,1595,eat,100,1252,1471,1,1,,1
w10066921_anl,lrz1z69vnd,Nick_Dissertation_EX2_EP,1,68,2021-08-29T10:07:27-07:00,2.2068800926208,2,Mixed_Stim.csv,READVersionB.csv,"Read Mixed B","Read Mixed B",AFFECTION,LOVE,Study2,F,115,87,Test,User,-,,Recall,Recall1,1917,love,100,1404,1800,1,1,,1
w10066921_anl,lrz1z69vnd,Nick_Dissertation_EX2_EP,1,69,2021-08-29T10:07:29-07:00,1.704824924469,2,Mixed_Stim.csv,READVersionB.csv,"Read Mixed B","Read Mixed B",FUZZY,BANG,Study2,U,168,89,Test,User,-,,Recall,Recall1,1395,,0,-1,-1,0,0,,1
w10066921_anl,lrz1z69vnd,Nick_Dissertation_EX2_EP,1,70,2021-08-29T10:07:31-07:00,1.7190680503845,2,Mixed_Stim.csv,READVersionB.csv,"Read Mixed B","Read Mixed B",FEUD,FIGHT,Study2,F,113,65,Test,User,-,,Recall,Recall1,1422,,0,-1,-1,0,0,,1
w10066921_anl,lrz1z69vnd,Nick_Dissertation_EX2_EP,1,71,2021-08-29T10:07:33-07:00,2.0251870155334,2,Mixed_Stim.csv,READVersionB.csv,"Read Mixed B","Read Mixed B",MOAT,CLEAR,Study2,U,169,86,Test,User,-,,Recall,Recall1,1723,,0,-1,-1,0,0,,1
w10066921_anl,lrz1z69vnd,Nick_Dissertation_EX2_EP,1,72,2021-08-29T10:07:39-07:00,6.5388391017914,2,Mixed_Stim.csv,READVersionB.csv,"Read Mixed B","Read Mixed B",CRACKLE,ABLE,Study2,U,162,88,Test,User,-,,Recall,Recall1,6229,joke,25,4701,5973,0,0,,1
w10066921_anl,lrz1z69vnd,Nick_Dissertation_EX2_EP,1,73,2021-08-29T10:07:42-07:00,2.5031988620758,2,Mixed_Stim.csv,READVersionB.csv,"Read Mixed B","Read Mixed B",ROOT,PLANT,Study1,F,13,23,Test,User,-,,Recall,Recall1,2204,word,0,1449,1880,0,0,,1
w10066921_anl,lrz1z69vnd,Nick_Dissertation_EX2_EP,1,74,2021-08-29T10:07:45-07:00,2.8321170806885,2,Mixed_Stim.csv,READVersionB.csv,"Read Mixed B","Read Mixed B",CLUE,GAME,Study2,F,97,69,Test,User,-,,Recall,Recall1,2525,game,100,2106,2393,1,1,,1
w10066921_anl,lrz1z69vnd,Nick_Dissertation_EX2_EP,1,75,2021-08-29T10:07:47-07:00,2.3451218605042,2,Mixed_Stim.csv,READVersionB.csv,"Read Mixed B","Read Mixed B",DOCUMENT,PAPER,Study2,F,109,92,Test,User,-,,Recall,Recall1,2030,paper,100,1524,1908,1,1,,1
w10066921_anl,lrz1z69vnd,Nick_Dissertation_EX2_EP,1,76,2021-08-29T10:07:48-07:00,1.4357781410217,2,Mixed_Stim.csv,READVersionB.csv,"Read Mixed B","Read Mixed B",BOTH,OUNCE,Study2,U,172,80,Test,User,-,,Recall,Recall1,1137,,0,-1,-1,0,0,,1
w10066921_anl,lrz1z69vnd,Nick_Dissertation_EX2_EP,1,77,2021-08-29T10:07:51-07:00,2.627317905426,2,Mixed_Stim.csv,READVersionB.csv,"Read Mixed B","Read Mixed B",LOAN,SIGN,Study2,U,171,71,Test,User,-,,Recall,Recall1,2327,ticket,20,1611,2112,0,0,,1
w10066921_anl,lrz1z69vnd,Nick_Dissertation_EX2_EP,1,78,2021-08-29T10:07:54-07:00,2.935996055603,2,Mixed_Stim.csv,READVersionB.csv,"Read Mixed B","Read Mixed B",INCENSE,SMELL,Study2,F,110,64,Test,User,-,,Recall,Recall1,2628,smell,100,1667,2401,1,1,,1
w10066921_anl,lrz1z69vnd,Nick_Dissertation_EX2_EP,1,79,2021-08-29T10:07:55-07:00,1.5972390174866,2,Mixed_Stim.csv,READVersionB.csv,"Read Mixed B","Read Mixed B",Shell,SHAKE,Study2,U,163,57,Test,User,-,,Recall,Recall1,1304,,0,-1,-1,0,0,,1
w10066921_anl,lrz1z69vnd,Nick_Dissertation_EX2_EP,1,80,2021-08-29T10:07:58-07:00,2.1780400276184,2,Mixed_Stim.csv,READVersionB.csv,"Read Mixed B","Read Mixed B",JUSTICE,MAROON,Study2,U,156,75,Test,User,-,,Recall,Recall1,1833,maroon,100,1054,1625,1,1,,1
w10066921_anl,lrz1z69vnd,Nick_Dissertation_EX2_EP,1,81,2021-08-29T10:08:01-07:00,3.8393678665161,2,Mixed_Stim.csv,READVersionB.csv,"Read Mixed B","Read Mixed B",SCALP,HEAD,Study2,F,105,63,Test,User,-,,Recall,Recall1,3452,head,100,1092,3231,1,1,,1
w10066921_anl,lrz1z69vnd,Nick_Dissertation_EX2_EP,1,82,2021-08-29T10:08:12-07:00,10.770797014236,2,Mixed_Stim.csv,READVersionB.csv,"Read Mixed B","Read Mixed B",MAZE,ELECTION,Study2,U,159,70,Test,User,-,,Recall,Recall1,9386,leader,28.571428571429,7937,9171,0,0,,1
w10066921_anl,lrz1z69vnd,Nick_Dissertation_EX2_EP,1,83,2021-08-29T10:08:17-07:00,4.9372179508209,2,Mixed_Stim.csv,READVersionB.csv,"Read Mixed B","Read Mixed B",LISTEN,FICTION,Study2,U,164,68,Test,User,-,,Recall,Recall1,4565,hear,0,2207,4088,0,0,,1
w10066921_anl,lrz1z69vnd,Nick_Dissertation_EX2_EP,1,84,2021-08-29T10:08:20-07:00,3.2924950122833,2,Mixed_Stim.csv,READVersionB.csv,"Read Mixed B","Read Mixed B",CACTUS,PLANT,Study2,F,98,74,Test,User,-,,Recall,Recall1,2992,plant,100,1318,2865,1,1,,1
w10066921_anl,lrz1z69vnd,Nick_Dissertation_EX2_EP,1,85,2021-08-29T10:08:23-07:00,2.3258399963379,2,Mixed_Stim.csv,READVersionB.csv,"Read Mixed B","Read Mixed B",VEHICLE,CHARM,Study2,U,160,82,Test,User,-,,Recall,Recall1,2019,car,75,1622,1857,0,1,,1
w10066921_anl,lrz1z69vnd,Nick_Dissertation_EX2_EP,1,86,2021-08-29T10:08:25-07:00,2.088504076004,2,Mixed_Stim.csv,READVersionB.csv,"Read Mixed B","Read Mixed B",CAKE,CLOTHES,Study2,U,166,78,Test,User,-,,Recall,Recall1,1724,clothes,100,1006,1661,1,1,,1
w10066921_anl,lrz1z69vnd,Nick_Dissertation_EX2_EP,1,87,2021-08-29T10:08:27-07:00,1.6303989887238,2,Mixed_Stim.csv,READVersionB.csv,"Read Mixed B","Read Mixed B",CHERRY,RED,Study2,F,104,94,Test,User,-,,Recall,Recall1,1331,red,100,914,1262,1,1,,1
w10066921_anl,lrz1z69vnd,Nick_Dissertation_EX2_EP,1,88,2021-08-29T10:08:29-07:00,2.9493751525879,2,Mixed_Stim.csv,READVersionB.csv,"Read Mixed B","Read Mixed B",MULE,DONKEY,Study2,F,108,61,Test,User,-,,Recall,Recall1,2652,donkey,100,1237,2415,1,1,,1
w10066921_anl,lrz1z69vnd,Nick_Dissertation_EX2_EP,1,89,2021-08-29T10:08:32-07:00,2.9251899719238,2,Mixed_Stim.csv,READVersionB.csv,"Read Mixed B","Read Mixed B",LITTER,TRASH,Study2,F,103,67,Test,User,-,,Recall,Recall1,2632,trash,100,1431,2225,1,1,,1
w10066921_anl,lrz1z69vnd,Nick_Dissertation_EX2_EP,1,90,2021-08-29T10:08:35-07:00,2.5459489822388,2,Mixed_Stim.csv,READVersionB.csv,"Read Mixed B","Read Mixed B",KEYS,JOKE,Study2,U,165,59,Test,User,-,,Recall,Recall1,2238,joke,100,1577,2077,1,1,,1
w10066921_anl,lrz1z69vnd,Nick_Dissertation_EX2_EP,1,91,2021-08-29T10:08:38-07:00,3.2103459835052,2,Mixed_Stim.csv,READVersionB.csv,"Read Mixed B","Read Mixed B",FURRY,DOG,Study2,F,102,81,Test,User,-,,Recall,Recall1,2907,cat,0,2536,2766,0,0,,1
w10066921_anl,lrz1z69vnd,Nick_Dissertation_EX2_EP,1,92,2021-08-29T10:09:06-07:00,27.526146888733,2,Mixed_Stim.csv,READVersionB.csv,"Read Mixed B","Read Mixed B",ADJOURN,END,Study2,F,101,93,Test,User,-,,Recall,Recall1,27217,,0,-1,-1,0,0,,1
w10066921_anl,lrz1z69vnd,Nick_Dissertation_EX2_EP,1,93,2021-08-29T10:09:07-07:00,1.4007680416107,2,Mixed_Stim.csv,READVersionB.csv,"Read Mixed B","Read Mixed B",DETECTIVE,MYSTERY,Study2,F,100,95,Test,User,-,,Recall,Recall1,1100,,0,-1,-1,0,0,,1
w10066921_anl,lrz1z69vnd,Nick_Dissertation_EX2_EP,1,94,2021-08-29T10:09:12-07:00,5.009871006012,2,Mixed_Stim.csv,READVersionB.csv,"Read Mixed B","Read Mixed B",CHILL,COLD,Study2,F,114,62,Test,User,-,,Recall,Recall1,4713,temperature,0,3194,4537,0,0,,1
w10066921_anl,lrz1z69vnd,Nick_Dissertation_EX2_EP,1,95,2021-08-29T10:09:25-07:00,13.358048915863,2,Mixed_Stim.csv,READVersionB.csv,"Read Mixed B","Read Mixed B",,,,,,0,Instruct,-,10,"You will now be presented with a new set of word pairs. Please study each pair. Remember that your memory will be tested! Each pair will be displayed on the computer screen and will automatically advance to the next pair. Press ENTER when you are ready to begin.",Initial_Instruct,Instruct4,13059,,,-1,-1,,,,1
w10066921_anl,lrz1z69vnd,Nick_Dissertation_EX2_EP,1,96,2021-08-29T10:09:34-07:00,8.325718164444,2,Mixed_Stim.csv,READVersionB.csv,"Read Mixed B","Read Mixed B",PEANUT,BUTTER,BUFFER1,Buffer,3,2,STUDY,8,8,,Study/JOL,BUFFER3,8002,,,-1,-1,,,,1
w10066921_anl,lrz1z69vnd,Nick_Dissertation_EX2_EP,1,97,2021-08-29T10:09:42-07:00,8.3163390159607,2,Mixed_Stim.csv,READVersionB.csv,"Read Mixed B","Read Mixed B",BASEBALL,CATCHER,BUFFER1,Buffer,2,4,STUDY,8,8,,Study/JOL,BUFFER3,8002,,,-1,-1,,,,1
w10066921_anl,lrz1z69vnd,Nick_Dissertation_EX2_EP,1,98,2021-08-29T10:09:50-07:00,8.3142609596252,2,Mixed_Stim.csv,READVersionB.csv,"Read Mixed B","Read Mixed B",SCARE,HIDE,BUFFER1,Buffer,4,6,STUDY,8,8,,Study/JOL,BUFFER3,8002,,,-1,-1,,,,1
w10066921_anl,lrz1z69vnd,Nick_Dissertation_EX2_EP,1,99,2021-08-29T10:09:59-07:00,8.3060059547424,2,Mixed_Stim.csv,READVersionB.csv,"Read Mixed B","Read Mixed B",SPACE,JAM,BUFFER1,Buffer,5,3,STUDY,8,8,,Study/JOL,BUFFER3,8002,,,-1,-1,,,,1
w10066921_anl,lrz1z69vnd,Nick_Dissertation_EX2_EP,1,100,2021-08-29T10:10:07-07:00,8.3036971092224,2,Mixed_Stim.csv,READVersionB.csv,"Read Mixed B","Read Mixed B",TREES,GREEN,BUFFER1,Buffer,1,5,STUDY,8,8,,Study/JOL,BUFFER3,8002,,,-1,-1,,,,1
w10066921_anl,lrz1z69vnd,Nick_Dissertation_EX2_EP,1,101,2021-08-29T10:10:15-07:00,8.3042099475861,2,Mixed_Stim.csv,READVersionB.csv,"Read Mixed B","Read Mixed B",ORCHID,FLOWER,Study1,F,24,31,STUDY,8,8,,Study/JOL,"Study Phase2",8001,,,-1,-1,,,,1
w10066921_anl,lrz1z69vnd,Nick_Dissertation_EX2_EP,1,102,2021-08-29T10:10:24-07:00,8.3034839630127,2,Mixed_Stim.csv,READVersionB.csv,"Read Mixed B","Read Mixed B",TUNA,FISH,Study1,F,25,24,STUDY,8,8,,Study/JOL,"Study Phase2",8002,,,-1,-1,,,,1
w10066921_anl,lrz1z69vnd,Nick_Dissertation_EX2_EP,1,103,2021-08-29T10:10:32-07:00,8.3260359764099,2,Mixed_Stim.csv,READVersionB.csv,"Read Mixed B","Read Mixed B",HYGIENE,CLEAN,Study1,F,17,16,STUDY,8,8,,Study/JOL,"Study Phase2",8001,,,-1,-1,,,,1
w10066921_anl,lrz1z69vnd,Nick_Dissertation_EX2_EP,1,104,2021-08-29T10:10:40-07:00,8.3239080905914,2,Mixed_Stim.csv,READVersionB.csv,"Read Mixed B","Read Mixed B",GEOLOGY,ROCK,Study1,F,19,12,STUDY,8,8,,Study/JOL,"Study Phase2",8000,,,-1,-1,,,,1
w10066921_anl,lrz1z69vnd,Nick_Dissertation_EX2_EP,1,105,2021-08-29T10:10:49-07:00,8.3124938011169,2,Mixed_Stim.csv,READVersionB.csv,"Read Mixed B","Read Mixed B",DELINQUENT,BAD,Study1,F,6,37,STUDY,8,8,,Study/JOL,"Study Phase2",8001,,,-1,-1,,,,1
w10066921_anl,lrz1z69vnd,Nick_Dissertation_EX2_EP,1,106,2021-08-29T10:10:57-07:00,8.3098480701447,2,Mixed_Stim.csv,READVersionB.csv,"Read Mixed B","Read Mixed B",SUGAR,RIDDLE,Study1,U,81,18,STUDY,8,8,,Study/JOL,"Study Phase2",8001,,,-1,-1,,,,1
w10066921_anl,lrz1z69vnd,Nick_Dissertation_EX2_EP,1,107,2021-08-29T10:11:05-07:00,8.3029720783234,2,Mixed_Stim.csv,READVersionB.csv,"Read Mixed B","Read Mixed B",ART,LION,Study1,U,79,21,STUDY,8,8,,Study/JOL,"Study Phase2",8002,,,-1,-1,,,,1
w10066921_anl,lrz1z69vnd,Nick_Dissertation_EX2_EP,1,108,2021-08-29T10:11:14-07:00,8.3099009990692,2,Mixed_Stim.csv,READVersionB.csv,"Read Mixed B","Read Mixed B",ALLOW,TUCK,Study1,U,78,14,STUDY,8,8,,Study/JOL,"Study Phase2",8002,,,-1,-1,,,,1
w10066921_anl,lrz1z69vnd,Nick_Dissertation_EX2_EP,1,109,2021-08-29T10:11:22-07:00,8.3232140541077,2,Mixed_Stim.csv,READVersionB.csv,"Read Mixed B","Read Mixed B",CASH,WOULD,Study1,U,83,44,STUDY,8,8,,Study/JOL,"Study Phase2",8002,,,-1,-1,,,,1
w10066921_anl,lrz1z69vnd,Nick_Dissertation_EX2_EP,1,110,2021-08-29T10:11:30-07:00,8.4811928272247,2,Mixed_Stim.csv,READVersionB.csv,"Read Mixed B","Read Mixed B",PAW,DOG,Study1,F,15,25,STUDY,8,8,,Study/JOL,"Study Phase2",8169,,,-1,-1,,,,0.813
w10066921_anl,lrz1z69vnd,Nick_Dissertation_EX2_EP,1,111,2021-08-29T10:11:39-07:00,8.2989761829376,2,Mixed_Stim.csv,READVersionB.csv,"Read Mixed B","Read Mixed B",BRIDGE,WATER,Study1,F,18,28,STUDY,8,8,,Study/JOL,"Study Phase2",8002,,,-1,-1,,,,0.65
w10066921_anl,lrz1z69vnd,Nick_Dissertation_EX2_EP,1,112,2021-08-29T10:11:47-07:00,8.3087499141693,2,Mixed_Stim.csv,READVersionB.csv,"Read Mixed B","Read Mixed B",HORNET,STING,Study1,F,11,19,STUDY,8,8,,Study/JOL,"Study Phase2",8002,,,-1,-1,,,,1
w10066921_anl,lrz1z69vnd,Nick_Dissertation_EX2_EP,1,113,2021-08-29T10:11:55-07:00,8.3108289241791,2,Mixed_Stim.csv,READVersionB.csv,"Read Mixed B","Read Mixed B",DEATH,BUSINESS,Study1,U,72,33,STUDY,8,8,,Study/JOL,"Study Phase2",8001,,,-1,-1,,,,1
w10066921_anl,lrz1z69vnd,Nick_Dissertation_EX2_EP,1,114,2021-08-29T10:12:04-07:00,8.320671081543,2,Mixed_Stim.csv,READVersionB.csv,"Read Mixed B","Read Mixed B",DEBATE,SIGHT,Study1,U,73,40,STUDY,8,8,,Study/JOL,"Study Phase2",8000,,,-1,-1,,,,1
w10066921_anl,lrz1z69vnd,Nick_Dissertation_EX2_EP,1,115,2021-08-29T10:12:12-07:00,8.3131620883942,2,Mixed_Stim.csv,READVersionB.csv,"Read Mixed B","Read Mixed B",EDITOR,NEWS,Study1,F,10,35,STUDY,8,8,,Study/JOL,"Study Phase2",8004,,,-1,-1,,,,1
w10066921_anl,lrz1z69vnd,Nick_Dissertation_EX2_EP,1,116,2021-08-29T10:12:20-07:00,8.3089289665222,2,Mixed_Stim.csv,READVersionB.csv,"Read Mixed B","Read Mixed B",FIX,HAND,Study1,U,75,38,STUDY,8,8,,Study/JOL,"Study Phase2",8001,,,-1,-1,,,,1
w10066921_anl,lrz1z69vnd,Nick_Dissertation_EX2_EP,1,117,2021-08-29T10:12:28-07:00,8.3095288276672,2,Mixed_Stim.csv,READVersionB.csv,"Read Mixed B","Read Mixed B",CHISEL,HAMMER,Study1,F,9,11,STUDY,8,8,,Study/JOL,"Study Phase2",8004,,,-1,-1,,,,1
w10066921_anl,lrz1z69vnd,Nick_Dissertation_EX2_EP,1,118,2021-08-29T10:12:37-07:00,8.8789000511169,2,Mixed_Stim.csv,READVersionB.csv,"Read Mixed B","Read Mixed B",REVOLUTION,WAR,Study1,F,20,7,STUDY,8,8,,Study/JOL,"Study Phase2",8003,,,-1,-1,,,,1
w10066921_anl,lrz1z69vnd,Nick_Dissertation_EX2_EP,1,119,2021-08-29T10:12:46-07:00,8.298849105835,2,Mixed_Stim.csv,READVersionB.csv,"Read Mixed B","Read Mixed B",HERD,COW,Study1,F,22,32,STUDY,8,8,,Study/JOL,"Study Phase2",8001,,,-1,-1,,,,1
w10066921_anl,lrz1z69vnd,Nick_Dissertation_EX2_EP,1,120,2021-08-29T10:12:54-07:00,8.3009979724884,2,Mixed_Stim.csv,READVersionB.csv,"Read Mixed B","Read Mixed B",ARTERY,BRONZE,Study1,U,74,39,STUDY,8,8,,Study/JOL,"Study Phase2",8001,,,-1,-1,,,,1
w10066921_anl,lrz1z69vnd,Nick_Dissertation_EX2_EP,1,121,2021-08-29T10:13:02-07:00,8.3292059898376,2,Mixed_Stim.csv,READVersionB.csv,"Read Mixed B","Read Mixed B",DISCOVER,FLOOR,Study1,U,71,45,STUDY,8,8,,Study/JOL,"Study Phase2",8002,,,-1,-1,,,,1
w10066921_anl,lrz1z69vnd,Nick_Dissertation_EX2_EP,1,122,2021-08-29T10:13:11-07:00,8.2849099636078,2,Mixed_Stim.csv,READVersionB.csv,"Read Mixed B","Read Mixed B",CREDIT,CARD,Study1,F,23,10,STUDY,8,8,,Study/JOL,"Study Phase2",8000,,,-1,-1,,,,1
w10066921_anl,lrz1z69vnd,Nick_Dissertation_EX2_EP,1,123,2021-08-29T10:13:19-07:00,8.3067300319672,2,Mixed_Stim.csv,READVersionB.csv,"Read Mixed B","Read Mixed B",PARK,HUNGRY,Study1,U,68,22,STUDY,8,8,,Study/JOL,"Study Phase2",8002,,,-1,-1,,,,1
w10066921_anl,lrz1z69vnd,Nick_Dissertation_EX2_EP,1,124,2021-08-29T10:13:27-07:00,8.3032028675079,2,Mixed_Stim.csv,READVersionB.csv,"Read Mixed B","Read Mixed B",VALLEY,ADD,Study1,U,82,20,STUDY,8,8,,Study/JOL,"Study Phase2",8001,,,-1,-1,,,,1
w10066921_anl,lrz1z69vnd,Nick_Dissertation_EX2_EP,1,125,2021-08-29T10:13:35-07:00,8.3084151744843,2,Mixed_Stim.csv,READVersionB.csv,"Read Mixed B","Read Mixed B",DIETARY,SACKING,Study1,U,67,41,STUDY,8,8,,Study/JOL,"Study Phase2",8002,,,-1,-1,,,,1
w10066921_anl,lrz1z69vnd,Nick_Dissertation_EX2_EP,1,126,2021-08-29T10:13:44-07:00,8.3141920566559,2,Mixed_Stim.csv,READVersionB.csv,"Read Mixed B","Read Mixed B",DISCUSSION,TALK,Study1,F,21,42,STUDY,8,8,,Study/JOL,"Study Phase2",8000,,,-1,-1,,,,0.412
w10066921_anl,lrz1z69vnd,Nick_Dissertation_EX2_EP,1,127,2021-08-29T10:13:52-07:00,8.3088779449463,2,Mixed_Stim.csv,READVersionB.csv,"Read Mixed B","Read Mixed B",WAY,OUT,Study1,F,16,13,STUDY,8,8,,Study/JOL,"Study Phase2",8002,,,-1,-1,,,,1
w10066921_anl,lrz1z69vnd,Nick_Dissertation_EX2_EP,1,128,2021-08-29T10:14:00-07:00,8.3025619983673,2,Mixed_Stim.csv,READVersionB.csv,"Read Mixed B","Read Mixed B",HAPPY,CAR,Study1,U,77,26,STUDY,8,8,,Study/JOL,"Study Phase2",8003,,,-1,-1,,,,1
w10066921_anl,lrz1z69vnd,Nick_Dissertation_EX2_EP,1,129,2021-08-29T10:14:09-07:00,8.3171720504761,2,Mixed_Stim.csv,READVersionB.csv,"Read Mixed B","Read Mixed B",LIFT,WOMAN,Study1,U,69,43,STUDY,8,8,,Study/JOL,"Study Phase2",8002,,,-1,-1,,,,1
w10066921_anl,lrz1z69vnd,Nick_Dissertation_EX2_EP,1,130,2021-08-29T10:14:17-07:00,8.3434720039368,2,Mixed_Stim.csv,READVersionB.csv,"Read Mixed B","Read Mixed B",SOON,BELT,Study1,U,70,36,STUDY,8,8,,Study/JOL,"Study Phase2",8003,,,-1,-1,,,,1
w10066921_anl,lrz1z69vnd,Nick_Dissertation_EX2_EP,1,131,2021-08-29T10:14:25-07:00,8.3291800022125,2,Mixed_Stim.csv,READVersionB.csv,"Read Mixed B","Read Mixed B",STRONG,ACCIDENT,Study1,U,80,8,STUDY,8,8,,Study/JOL,"Study Phase2",8004,,,-1,-1,,,,1
w10066921_anl,lrz1z69vnd,Nick_Dissertation_EX2_EP,1,132,2021-08-29T10:14:34-07:00,8.3047668933868,2,Mixed_Stim.csv,READVersionB.csv,"Read Mixed B","Read Mixed B",HIDE,SICK,Study1,U,84,34,STUDY,8,8,,Study/JOL,"Study Phase2",8001,,,-1,-1,,,,1
w10066921_anl,lrz1z69vnd,Nick_Dissertation_EX2_EP,1,133,2021-08-29T10:14:42-07:00,8.3048410415649,2,Mixed_Stim.csv,READVersionB.csv,"Read Mixed B","Read Mixed B",PUSHER,CLUTTER,Study1,U,66,27,STUDY,8,8,,Study/JOL,"Study Phase2",8001,,,-1,-1,,,,1
w10066921_anl,lrz1z69vnd,Nick_Dissertation_EX2_EP,1,134,2021-08-29T10:14:50-07:00,8.3224198818207,2,Mixed_Stim.csv,READVersionB.csv,"Read Mixed B","Read Mixed B",ROOT,PLANT,Study1,F,13,23,STUDY,8,8,,Study/JOL,"Study Phase2",8002,,,-1,-1,,,,1
w10066921_anl,lrz1z69vnd,Nick_Dissertation_EX2_EP,1,135,2021-08-29T10:14:59-07:00,8.291974067688,2,Mixed_Stim.csv,READVersionB.csv,"Read Mixed B","Read Mixed B",BITTER,COLD,Study1,F,12,9,STUDY,8,8,,Study/JOL,"Study Phase2",8001,,,-1,-1,,,,1
w10066921_anl,lrz1z69vnd,Nick_Dissertation_EX2_EP,1,136,2021-08-29T10:15:07-07:00,8.2988510131836,2,Mixed_Stim.csv,READVersionB.csv,"Read Mixed B","Read Mixed B",SWAN,BIRD,Study1,F,14,30,STUDY,8,8,,Study/JOL,"Study Phase2",8001,,,-1,-1,,,,1
w10066921_anl,lrz1z69vnd,Nick_Dissertation_EX2_EP,1,137,2021-08-29T10:15:15-07:00,8.3100481033325,2,Mixed_Stim.csv,READVersionB.csv,"Read Mixed B","Read Mixed B",KING,VASE,Study1,U,85,46,STUDY,8,8,,Study/JOL,"Study Phase2",8001,,,-1,-1,,,,1
w10066921_anl,lrz1z69vnd,Nick_Dissertation_EX2_EP,1,138,2021-08-29T10:15:24-07:00,8.3076629638672,2,Mixed_Stim.csv,READVersionB.csv,"Read Mixed B","Read Mixed B",MACHINE,POSITION,Study1,U,76,29,STUDY,8,8,,Study/JOL,"Study Phase2",8001,,,-1,-1,,,,1
w10066921_anl,lrz1z69vnd,Nick_Dissertation_EX2_EP,1,139,2021-08-29T10:15:32-07:00,8.2999358177185,2,Mixed_Stim.csv,READVersionB.csv,"Read Mixed B","Read Mixed B",DIGESTION,STOMACH,Study1,F,7,15,STUDY,8,8,,Study/JOL,"Study Phase2",8002,,,-1,-1,,,,1
w10066921_anl,lrz1z69vnd,Nick_Dissertation_EX2_EP,1,140,2021-08-29T10:15:40-07:00,8.315493106842,2,Mixed_Stim.csv,READVersionB.csv,"Read Mixed B","Read Mixed B",WAGE,MONEY,Study1,F,8,17,STUDY,8,8,,Study/JOL,"Study Phase2",8001,,,-1,-1,,,,1
w10066921_anl,lrz1z69vnd,Nick_Dissertation_EX2_EP,1,141,2021-08-29T10:15:48-07:00,8.3266890048981,2,Mixed_Stim.csv,READVersionB.csv,"Read Mixed B","Read Mixed B",SHERRIF,POLICE,BUFFER2,Buffer,87,49,STUDY,8,8,,Study/JOL,BUFFER4,8001,,,-1,-1,,,,0.71
w10066921_anl,lrz1z69vnd,Nick_Dissertation_EX2_EP,1,142,2021-08-29T10:15:57-07:00,8.4990530014038,2,Mixed_Stim.csv,READVersionB.csv,"Read Mixed B","Read Mixed B",THING,STUFF,BUFFER2,Buffer,90,51,STUDY,8,8,,Study/JOL,BUFFER4,8202,,,-1,-1,,,,0
w10066921_anl,lrz1z69vnd,Nick_Dissertation_EX2_EP,1,143,2021-08-29T10:16:06-07:00,9.2438559532166,2,Mixed_Stim.csv,READVersionB.csv,"Read Mixed B","Read Mixed B",GEESE,GOOSE,BUFFER2,Buffer,86,50,STUDY,8,8,,Study/JOL,BUFFER4,8934,,,-1,-1,,,,0
w10066921_anl,lrz1z69vnd,Nick_Dissertation_EX2_EP,1,144,2021-08-29T10:16:15-07:00,8.3364410400391,2,Mixed_Stim.csv,READVersionB.csv,"Read Mixed B","Read Mixed B",MOON,SPACE,BUFFER2,Buffer,89,48,STUDY,8,8,,Study/JOL,BUFFER4,8002,,,-1,-1,,,,0.741
w10066921_anl,lrz1z69vnd,Nick_Dissertation_EX2_EP,1,145,2021-08-29T10:16:23-07:00,8.3040890693665,2,Mixed_Stim.csv,READVersionB.csv,"Read Mixed B","Read Mixed B",MALT,CHOCOLATE,BUFFER2,Buffer,88,47,STUDY,8,8,,Study/JOL,BUFFER4,8002,,,-1,-1,,,,1
w10066921_anl,lrz1z69vnd,Nick_Dissertation_EX2_EP,1,146,2021-08-29T10:16:25-07:00,1.8911728858948,2,Mixed_Stim.csv,READVersionB.csv,"Read Mixed B","Read Mixed B",,,,,,0,Instruct,User,-,"You have completed this section. Please press Enter.",Filler_Instruction,Instruct5,1594,,,-1,-1,,,,1
w10066921_anl,lrz1z69vnd,Nick_Dissertation_EX2_EP,1,147,2021-08-29T10:18:25-07:00,120.62033510208,2,Mixed_Stim.csv,READVersionB.csv,"Read Mixed B","Read Mixed B",,,,,,0,FreeRecall,120,120,"Please list the 50 US states in reverse alphabetical order (z - a). The task will automatically advance to the next screen after two minutes.",,Filler2,120001,"wyoming wisconson west virigna washington virgina vermont texas tenessee south dakota south carolina penslyvania oklahoma north dakota north carolina new york new jersey nev",0,11455,119864,0,0,,0.938
w10066921_anl,lrz1z69vnd,Nick_Dissertation_EX2_EP,1,148,2021-08-29T10:18:37-07:00,11.887238025665,2,Mixed_Stim.csv,READVersionB.csv,"Read Mixed B","Read Mixed B",,,,,,0,Instruct,-,10,"You will now be presented with the first word from each of the previously studied item pairs. Please type the missing word. If you do not know the word, you may guess or press Enter to skip forward to the next pair.",,Instruct6,11577,,,-1,-1,,,,1
w10066921_anl,lrz1z69vnd,Nick_Dissertation_EX2_EP,1,149,2021-08-29T10:18:40-07:00,2.3246438503265,2,Mixed_Stim.csv,READVersionB.csv,"Read Mixed B","Read Mixed B",GEOLOGY,ROCK,Study1,F,19,12,Test,User,-,,Recall,Recall2,1987,,0,-1,-1,0,0,,1
w10066921_anl,lrz1z69vnd,Nick_Dissertation_EX2_EP,1,150,2021-08-29T10:18:45-07:00,5.4785270690918,2,Mixed_Stim.csv,READVersionB.csv,"Read Mixed B","Read Mixed B",SUGAR,RIDDLE,Study1,U,81,18,Test,User,-,,Recall,Recall2,5104,rock,20,2744,4825,0,0,,1
w10066921_anl,lrz1z69vnd,Nick_Dissertation_EX2_EP,1,151,2021-08-29T10:18:47-07:00,1.9319760799408,2,Mixed_Stim.csv,READVersionB.csv,"Read Mixed B","Read Mixed B",TUNA,FISH,Study1,F,25,24,Test,User,-,,Recall,Recall2,1481,fish,100,1016,1278,1,1,,1
w10066921_anl,lrz1z69vnd,Nick_Dissertation_EX2_EP,1,152,2021-08-29T10:18:49-07:00,1.7985599040985,2,Mixed_Stim.csv,READVersionB.csv,"Read Mixed B","Read Mixed B",WAY,OUT,Study1,F,16,13,Test,User,-,,Recall,Recall2,1359,out,100,991,1189,1,1,,1
w10066921_anl,lrz1z69vnd,Nick_Dissertation_EX2_EP,1,153,2021-08-29T10:18:52-07:00,2.8892920017242,2,Mixed_Stim.csv,READVersionB.csv,"Read Mixed B","Read Mixed B",DIGESTION,STOMACH,Study1,F,7,15,Test,User,-,,Recall,Recall2,2611,food,18.181818181818,1410,2440,0,0,,1
w10066921_anl,lrz1z69vnd,Nick_Dissertation_EX2_EP,1,154,2021-08-29T10:18:54-07:00,2.4264891147614,2,Mixed_Stim.csv,READVersionB.csv,"Read Mixed B","Read Mixed B",DEBATE,SIGHT,Study1,U,73,40,Test,User,-,,Recall,Recall2,2133,heat,44.444444444444,1597,1950,0,0,,1
w10066921_anl,lrz1z69vnd,Nick_Dissertation_EX2_EP,1,155,2021-08-29T10:18:57-07:00,2.6850140094757,2,Mixed_Stim.csv,READVersionB.csv,"Read Mixed B","Read Mixed B",HAPPY,CAR,Study1,U,77,26,Test,User,-,,Recall,Recall2,2371,sad,33.333333333333,1421,1787,0,0,,1
w10066921_anl,lrz1z69vnd,Nick_Dissertation_EX2_EP,1,156,2021-08-29T10:19:00-07:00,3.0381097793579,2,Mixed_Stim.csv,READVersionB.csv,"Read Mixed B","Read Mixed B",REVOLUTION,WAR,Study1,F,20,7,Test,User,-,,Recall,Recall2,2724,war,100,2188,2574,1,1,,1
w10066921_anl,lrz1z69vnd,Nick_Dissertation_EX2_EP,1,157,2021-08-29T10:19:05-07:00,5.0302751064301,2,Mixed_Stim.csv,READVersionB.csv,"Read Mixed B","Read Mixed B",CHISEL,HAMMER,Study1,F,9,11,Test,User,-,,Recall,Recall2,4730,cut,0,3910,4562,0,0,,1
w10066921_anl,lrz1z69vnd,Nick_Dissertation_EX2_EP,1,158,2021-08-29T10:19:07-07:00,1.8669550418854,2,Mixed_Stim.csv,READVersionB.csv,"Read Mixed B","Read Mixed B",CREDIT,CARD,Study1,F,23,10,Test,User,-,,Recall,Recall2,1544,card,100,942,1407,1,1,,1
w10066921_anl,lrz1z69vnd,Nick_Dissertation_EX2_EP,1,159,2021-08-29T10:19:09-07:00,2.3047368526459,2,Mixed_Stim.csv,READVersionB.csv,"Read Mixed B","Read Mixed B",DEATH,BUSINESS,Study1,U,72,33,Test,User,-,,Recall,Recall2,1999,,0,-1,-1,0,0,,1
w10066921_anl,lrz1z69vnd,Nick_Dissertation_EX2_EP,1,160,2021-08-29T10:19:14-07:00,5.3847360610962,2,Mixed_Stim.csv,READVersionB.csv,"Read Mixed B","Read Mixed B",STRONG,ACCIDENT,Study1,U,80,8,Test,User,-,,Recall,Recall2,5088,woman,30.769230769231,2911,4147,0,0,,1
w10066921_anl,lrz1z69vnd,Nick_Dissertation_EX2_EP,1,161,2021-08-29T10:19:16-07:00,1.6349260807037,2,Mixed_Stim.csv,READVersionB.csv,"Read Mixed B","Read Mixed B",KING,VASE,Study1,U,85,46,Test,User,-,,Recall,Recall2,1337,,0,-1,-1,0,0,,1
w10066921_anl,lrz1z69vnd,Nick_Dissertation_EX2_EP,1,162,2021-08-29T10:19:20-07:00,4.0589940547943,2,Mixed_Stim.csv,READVersionB.csv,"Read Mixed B","Read Mixed B",DIETARY,SACKING,Study1,U,67,41,Test,User,-,,Recall,Recall2,3712,food,0,2715,3525,0,0,,1
w10066921_anl,lrz1z69vnd,Nick_Dissertation_EX2_EP,1,163,2021-08-29T10:19:25-07:00,4.4496757984161,2,Mixed_Stim.csv,READVersionB.csv,"Read Mixed B","Read Mixed B",ROOT,PLANT,Study1,F,13,23,Test,User,-,,Recall,Recall2,4130,tree,22.222222222222,2938,3857,0,0,,1
w10066921_anl,lrz1z69vnd,Nick_Dissertation_EX2_EP,1,164,2021-08-29T10:19:32-07:00,7.5127880573273,2,Mixed_Stim.csv,READVersionB.csv,"Read Mixed B","Read Mixed B",CASH,WOULD,Study1,U,83,44,Test,User,-,,Recall,Recall2,7206,card,22.222222222222,2613,6055,0,0,,1
w10066921_anl,lrz1z69vnd,Nick_Dissertation_EX2_EP,1,165,2021-08-29T10:19:39-07:00,6.4408099651337,2,Mixed_Stim.csv,READVersionB.csv,"Read Mixed B","Read Mixed B",BITTER,COLD,Study1,F,12,9,Test,User,-,,Recall,Recall2,6119,candy,44.444444444444,5036,5896,0,0,,1
w10066921_anl,lrz1z69vnd,Nick_Dissertation_EX2_EP,1,166,2021-08-29T10:19:40-07:00,1.7669460773468,2,Mixed_Stim.csv,READVersionB.csv,"Read Mixed B","Read Mixed B",DELINQUENT,BAD,Study1,F,6,37,Test,User,-,,Recall,Recall2,1457,bad,100,1160,1356,1,1,,1
w10066921_anl,lrz1z69vnd,Nick_Dissertation_EX2_EP,1,167,2021-08-29T10:19:45-07:00,4.6589579582214,2,Mixed_Stim.csv,READVersionB.csv,"Read Mixed B","Read Mixed B",PARK,HUNGRY,Study1,U,68,22,Test,User,-,,Recall,Recall2,4352,car,22.222222222222,3999,4237,0,0,,1
w10066921_anl,lrz1z69vnd,Nick_Dissertation_EX2_EP,1,168,2021-08-29T10:19:47-07:00,1.6698839664459,2,Mixed_Stim.csv,READVersionB.csv,"Read Mixed B","Read Mixed B",FIX,HAND,Study1,U,75,38,Test,User,-,,Recall,Recall2,1374,,0,-1,-1,0,0,,1
w10066921_anl,lrz1z69vnd,Nick_Dissertation_EX2_EP,1,169,2021-08-29T10:19:50-07:00,2.9858551025391,2,Mixed_Stim.csv,READVersionB.csv,"Read Mixed B","Read Mixed B",ART,LION,Study1,U,79,21,Test,User,-,,Recall,Recall2,2680,,0,-1,-1,0,0,,1
w10066921_anl,lrz1z69vnd,Nick_Dissertation_EX2_EP,1,170,2021-08-29T10:20:00-07:00,9.9164690971375,2,Mixed_Stim.csv,READVersionB.csv,"Read Mixed B","Read Mixed B",PUSHER,CLUTTER,Study1,U,66,27,Test,User,-,,Recall,Recall2,9690,,0,-1,-1,0,0,,1
w10066921_anl,lrz1z69vnd,Nick_Dissertation_EX2_EP,1,171,2021-08-29T10:20:02-07:00,2.5273587703705,2,Mixed_Stim.csv,READVersionB.csv,"Read Mixed B","Read Mixed B",BRIDGE,WATER,Study1,F,18,28,Test,User,-,,Recall,Recall2,2212,wter,88.888888888889,1474,2069,0,1,,1
w10066921_anl,lrz1z69vnd,Nick_Dissertation_EX2_EP,1,172,2021-08-29T10:20:07-07:00,4.5694861412048,2,Mixed_Stim.csv,READVersionB.csv,"Read Mixed B","Read Mixed B",SWAN,BIRD,Study1,F,14,30,Test,User,-,,Recall,Recall2,4272,swim,25,1652,4047,0,0,,1
w10066921_anl,lrz1z69vnd,Nick_Dissertation_EX2_EP,1,173,2021-08-29T10:20:08-07:00,1.4930379390717,2,Mixed_Stim.csv,READVersionB.csv,"Read Mixed B","Read Mixed B",ALLOW,TUCK,Study1,U,78,14,Test,User,-,,Recall,Recall2,1197,,0,-1,-1,0,0,,1
w10066921_anl,lrz1z69vnd,Nick_Dissertation_EX2_EP,1,174,2021-08-29T10:20:10-07:00,2.2298250198364,2,Mixed_Stim.csv,READVersionB.csv,"Read Mixed B","Read Mixed B",HORNET,STING,Study1,F,11,19,Test,User,-,,Recall,Recall2,1932,nest,44.444444444444,1426,1823,0,0,,1
w10066921_anl,lrz1z69vnd,Nick_Dissertation_EX2_EP,1,175,2021-08-29T10:20:12-07:00,2.0011079311371,2,Mixed_Stim.csv,READVersionB.csv,"Read Mixed B","Read Mixed B",HYGIENE,CLEAN,Study1,F,17,16,Test,User,-,,Recall,Recall2,1699,clean,100,1100,1399,1,1,,1
w10066921_anl,lrz1z69vnd,Nick_Dissertation_EX2_EP,1,176,2021-08-29T10:20:16-07:00,3.3328461647034,2,Mixed_Stim.csv,READVersionB.csv,"Read Mixed B","Read Mixed B",ARTERY,BRONZE,Study1,U,74,39,Test,User,-,,Recall,Recall2,3037,blood,36.363636363636,2018,2875,0,0,,1
w10066921_anl,lrz1z69vnd,Nick_Dissertation_EX2_EP,1,177,2021-08-29T10:20:18-07:00,1.8792588710785,2,Mixed_Stim.csv,READVersionB.csv,"Read Mixed B","Read Mixed B",LIFT,WOMAN,Study1,U,69,43,Test,User,-,,Recall,Recall2,1587,woman,100,934,1397,1,1,,1
w10066921_anl,lrz1z69vnd,Nick_Dissertation_EX2_EP,1,178,2021-08-29T10:20:20-07:00,1.9561860561371,2,Mixed_Stim.csv,READVersionB.csv,"Read Mixed B","Read Mixed B",ORCHID,FLOWER,Study1,F,24,31,Test,User,-,,Recall,Recall2,1640,flower,100,1014,1479,1,1,,1
w10066921_anl,lrz1z69vnd,Nick_Dissertation_EX2_EP,1,179,2021-08-29T10:20:23-07:00,3.6000220775604,2,Mixed_Stim.csv,READVersionB.csv,"Read Mixed B","Read Mixed B",WAGE,MONEY,Study1,F,8,17,Test,User,-,,Recall,Recall2,3299,money,100,1324,3054,1,1,,1
w10066921_anl,lrz1z69vnd,Nick_Dissertation_EX2_EP,1,180,2021-08-29T10:20:26-07:00,2.7026720046997,2,Mixed_Stim.csv,READVersionB.csv,"Read Mixed B","Read Mixed B",DISCOVER,FLOOR,Study1,U,71,45,Test,User,-,,Recall,Recall2,2403,out,25,2092,2221,0,0,,1
w10066921_anl,lrz1z69vnd,Nick_Dissertation_EX2_EP,1,181,2021-08-29T10:20:28-07:00,2.4291768074036,2,Mixed_Stim.csv,READVersionB.csv,"Read Mixed B","Read Mixed B",HERD,COW,Study1,F,22,32,Test,User,-,,Recall,Recall2,2130,cow,100,1792,1959,1,1,,1
w10066921_anl,lrz1z69vnd,Nick_Dissertation_EX2_EP,1,182,2021-08-29T10:20:31-07:00,2.4447901248932,2,Mixed_Stim.csv,READVersionB.csv,"Read Mixed B","Read Mixed B",DISCUSSION,TALK,Study1,F,21,42,Test,User,-,,Recall,Recall2,2157,talk,100,1567,1990,1,1,,1
w10066921_anl,lrz1z69vnd,Nick_Dissertation_EX2_EP,1,183,2021-08-29T10:20:33-07:00,2.2880709171295,2,Mixed_Stim.csv,READVersionB.csv,"Read Mixed B","Read Mixed B",PAW,DOG,Study1,F,15,25,Test,User,-,,Recall,Recall2,1988,dog,100,1389,1783,1,1,,1
w10066921_anl,lrz1z69vnd,Nick_Dissertation_EX2_EP,1,184,2021-08-29T10:20:35-07:00,1.9897701740265,2,Mixed_Stim.csv,READVersionB.csv,"Read Mixed B","Read Mixed B",EDITOR,NEWS,Study1,F,10,35,Test,User,-,,Recall,Recall2,1687,news,100,1128,1564,1,1,,1
w10066921_anl,lrz1z69vnd,Nick_Dissertation_EX2_EP,1,185,2021-08-29T10:20:36-07:00,1.4432878494263,2,Mixed_Stim.csv,READVersionB.csv,"Read Mixed B","Read Mixed B",SOON,BELT,Study1,U,70,36,Test,User,-,,Recall,Recall2,1141,,0,-1,-1,0,0,,1
w10066921_anl,lrz1z69vnd,Nick_Dissertation_EX2_EP,1,186,2021-08-29T10:20:46-07:00,10.041126012802,2,Mixed_Stim.csv,READVersionB.csv,"Read Mixed B","Read Mixed B",MACHINE,POSITION,Study1,U,76,29,Test,User,-,,Recall,Recall2,9747,type,16.666666666667,8879,9562,0,0,,1
w10066921_anl,lrz1z69vnd,Nick_Dissertation_EX2_EP,1,187,2021-08-29T10:20:51-07:00,4.3477430343628,2,Mixed_Stim.csv,READVersionB.csv,"Read Mixed B","Read Mixed B",VALLEY,ADD,Study1,U,82,20,Test,User,-,,Recall,Recall2,4011,road,57.142857142857,3526,3908,0,0,,1
w10066921_anl,lrz1z69vnd,Nick_Dissertation_EX2_EP,1,188,2021-08-29T10:20:55-07:00,3.7087380886078,2,Mixed_Stim.csv,READVersionB.csv,"Read Mixed B","Read Mixed B",HIDE,SICK,Study1,U,84,34,Test,User,-,,Recall,Recall2,3396,sick,100,1464,3100,1,1,,1
w10066921_anl,lrz1z69vnd,Nick_Dissertation_EX2_EP,1,189,2021-08-29T10:20:56-07:00,1.1012787818909,2,Mixed_Stim.csv,READVersionB.csv,"Read Mixed B","Read Mixed B",,,,,,0,Instruct,User,-,"You have completed this section. Please press Enter.",,Instruct7,801,,,-1,-1,,,,1
w10066921_anl,lrz1z69vnd,Nick_Dissertation_EX2_EP,1,190,2021-08-29T10:20:57-07:00,1.7955570220947,2,Mixed_Stim.csv,READVersionB.csv,"Read Mixed B","Read Mixed B",,,,,,0,Instruct,User,-,"The following screen will ask you a few questions abour your experience today. You must complete these questions to receive credit.",,Instruct8,1481,,,-1,-1,,,,1
