Username,ID,ExperimentName,Session,Trial,Date,TimeDif,"Condition Number","Stimuli File","Order File","Condition Description","Condition Notes",Stimuli*Cue,Stimuli*Answer,Stimuli*Shuffle,"Stimuli*Stimuli Notes",Stimuli*Value,Procedure*Item,"Procedure*Trial Type","Procedure*Max Time","Procedure*Min Time",Procedure*Text,"Procedure*Procedure Notes",Procedure*Shuffle,Response*RT,Response*Response,Response*Accuracy,Response*RTfirst,Response*RTlast,Response*strictAcc,Response*lenientAcc,Response*focus,Response*Focus
w10102219,ez5awwtnqq,Nick_Dissertation_EX2_EP,1,1,2022-04-26T03:54:12+00:00,14.678942918777,3,Pure_Forward.csv,READVersionA.csv,"Read Pure F A","Read Pure F A",,,,,,0,Instruct,-,10,"Please study each of the following word pairs. Remember that your memory will be tested! Each pair will be displayed on the computer screen and will automatically advance to the next pair. Press ENTER when you are ready to begin.",Initial_Instruct,Instruct1,13630,,,-1,-1,,,,1
w10102219,ez5awwtnqq,Nick_Dissertation_EX2_EP,1,2,2022-04-26T03:54:20+00:00,8.5231990814209,3,Pure_Forward.csv,READVersionA.csv,"Read Pure F A","Read Pure F A",BASEBALL,CATCHER,BUFFER1,Buffer,2,6,STUDY,8,8,,Study/JOL,BUFFER,8003,,,-1,-1,,,,1
w10102219,ez5awwtnqq,Nick_Dissertation_EX2_EP,1,3,2022-04-26T03:54:29+00:00,9.0544958114624,3,Pure_Forward.csv,READVersionA.csv,"Read Pure F A","Read Pure F A",PEANUT,BUTTER,BUFFER1,Buffer,3,3,STUDY,8,8,,Study/JOL,BUFFER,8003,,,-1,-1,,,,1
w10102219,ez5awwtnqq,Nick_Dissertation_EX2_EP,1,4,2022-04-26T03:54:38+00:00,8.364196062088,3,Pure_Forward.csv,READVersionA.csv,"Read Pure F A","Read Pure F A",TREES,GREEN,BUFFER1,Buffer,1,4,STUDY,8,8,,Study/JOL,BUFFER,8002,,,-1,-1,,,,1
w10102219,ez5awwtnqq,Nick_Dissertation_EX2_EP,1,5,2022-04-26T03:54:46+00:00,8.359915971756,3,Pure_Forward.csv,READVersionA.csv,"Read Pure F A","Read Pure F A",SCARE,HIDE,BUFFER1,Buffer,4,5,STUDY,8,8,,Study/JOL,BUFFER,8002,,,-1,-1,,,,1
w10102219,ez5awwtnqq,Nick_Dissertation_EX2_EP,1,6,2022-04-26T03:54:55+00:00,8.5710849761963,3,Pure_Forward.csv,READVersionA.csv,"Read Pure F A","Read Pure F A",SPACE,JAM,BUFFER1,Buffer,5,2,STUDY,8,8,,Study/JOL,BUFFER,8003,,,-1,-1,,,,1
w10102219,ez5awwtnqq,Nick_Dissertation_EX2_EP,1,7,2022-04-26T03:55:03+00:00,8.3744051456451,3,Pure_Forward.csv,READVersionA.csv,"Read Pure F A","Read Pure F A",BREAKABLE,GLASS,Study1,F,77,37,STUDY,8,8,,Study/JOL,"Study Phase",8002,,,-1,-1,,,,1
w10102219,ez5awwtnqq,Nick_Dissertation_EX2_EP,1,8,2022-04-26T03:55:12+00:00,8.5145099163055,3,Pure_Forward.csv,READVersionA.csv,"Read Pure F A","Read Pure F A",VILLAIN,BAD,Study1,F,68,22,STUDY,8,8,,Study/JOL,"Study Phase",8002,,,-1,-1,,,,1
w10102219,ez5awwtnqq,Nick_Dissertation_EX2_EP,1,9,2022-04-26T03:55:21+00:00,9.4051530361176,3,Pure_Forward.csv,READVersionA.csv,"Read Pure F A","Read Pure F A",THIMBLE,THREAD,Study1,F,71,42,STUDY,8,8,,Study/JOL,"Study Phase",8002,,,-1,-1,,,,1
w10102219,ez5awwtnqq,Nick_Dissertation_EX2_EP,1,10,2022-04-26T03:55:29+00:00,8.3054270744324,3,Pure_Forward.csv,READVersionA.csv,"Read Pure F A","Read Pure F A",COFFIN,DEAD,Study1,F,78,25,STUDY,8,8,,Study/JOL,"Study Phase",8001,,,-1,-1,,,,1
w10102219,ez5awwtnqq,Nick_Dissertation_EX2_EP,1,11,2022-04-26T03:55:38+00:00,8.2796947956085,3,Pure_Forward.csv,READVersionA.csv,"Read Pure F A","Read Pure F A",EDITOR,NEWS,Study1,F,10,7,STUDY,8,8,,Study/JOL,"Study Phase",8001,,,-1,-1,,,,1
w10102219,ez5awwtnqq,Nick_Dissertation_EX2_EP,1,12,2022-04-26T03:55:46+00:00,8.5814230442047,3,Pure_Forward.csv,READVersionA.csv,"Read Pure F A","Read Pure F A",SWAN,BIRD,Study1,F,14,16,STUDY,8,8,,Study/JOL,"Study Phase",8002,,,-1,-1,,,,1
w10102219,ez5awwtnqq,Nick_Dissertation_EX2_EP,1,13,2022-04-26T03:55:54+00:00,8.2996649742126,3,Pure_Forward.csv,READVersionA.csv,"Read Pure F A","Read Pure F A",HERD,COW,Study1,F,22,12,STUDY,8,8,,Study/JOL,"Study Phase",8003,,,-1,-1,,,,1
w10102219,ez5awwtnqq,Nick_Dissertation_EX2_EP,1,14,2022-04-26T03:56:03+00:00,8.848354101181,3,Pure_Forward.csv,READVersionA.csv,"Read Pure F A","Read Pure F A",REVENGE,EVEN,Study1,F,72,8,STUDY,8,8,,Study/JOL,"Study Phase",8003,,,-1,-1,,,,1
w10102219,ez5awwtnqq,Nick_Dissertation_EX2_EP,1,15,2022-04-26T03:56:13+00:00,10.017194986343,3,Pure_Forward.csv,READVersionA.csv,"Read Pure F A","Read Pure F A",PENGUIN,BIRD,Study1,F,69,31,STUDY,8,8,,Study/JOL,"Study Phase",8002,,,-1,-1,,,,1
w10102219,ez5awwtnqq,Nick_Dissertation_EX2_EP,1,16,2022-04-26T03:56:22+00:00,8.5223240852356,3,Pure_Forward.csv,READVersionA.csv,"Read Pure F A","Read Pure F A",AIRCRAFT,PLANE,Study1,F,79,20,STUDY,8,8,,Study/JOL,"Study Phase",8002,,,-1,-1,,,,1
w10102219,ez5awwtnqq,Nick_Dissertation_EX2_EP,1,17,2022-04-26T03:56:30+00:00,8.3483498096466,3,Pure_Forward.csv,READVersionA.csv,"Read Pure F A","Read Pure F A",ACTRESS,STAR,Study1,F,70,17,STUDY,8,8,,Study/JOL,"Study Phase",8001,,,-1,-1,,,,1
w10102219,ez5awwtnqq,Nick_Dissertation_EX2_EP,1,18,2022-04-26T03:56:39+00:00,8.4787042140961,3,Pure_Forward.csv,READVersionA.csv,"Read Pure F A","Read Pure F A",BRIDGE,WATER,Study1,F,18,13,STUDY,8,8,,Study/JOL,"Study Phase",8002,,,-1,-1,,,,1
w10102219,ez5awwtnqq,Nick_Dissertation_EX2_EP,1,19,2022-04-26T03:56:48+00:00,9.0700738430023,3,Pure_Forward.csv,READVersionA.csv,"Read Pure F A","Read Pure F A",TUNA,FISH,Study1,F,25,44,STUDY,8,8,,Study/JOL,"Study Phase",8002,,,-1,-1,,,,1
w10102219,ez5awwtnqq,Nick_Dissertation_EX2_EP,1,20,2022-04-26T03:56:56+00:00,8.5067400932312,3,Pure_Forward.csv,READVersionA.csv,"Read Pure F A","Read Pure F A",TRUTHFUL,HONEST,Study1,F,83,32,STUDY,8,8,,Study/JOL,"Study Phase",8003,,,-1,-1,,,,1
w10102219,ez5awwtnqq,Nick_Dissertation_EX2_EP,1,21,2022-04-26T03:57:05+00:00,8.2669160366058,3,Pure_Forward.csv,READVersionA.csv,"Read Pure F A","Read Pure F A",FAVORITE,BEST,Study1,F,75,29,STUDY,8,8,,Study/JOL,"Study Phase",8002,,,-1,-1,,,,1
w10102219,ez5awwtnqq,Nick_Dissertation_EX2_EP,1,22,2022-04-26T03:57:13+00:00,8.4457139968872,3,Pure_Forward.csv,READVersionA.csv,"Read Pure F A","Read Pure F A",DISCUSSION,TALK,Study1,F,21,14,STUDY,8,8,,Study/JOL,"Study Phase",8002,,,-1,-1,,,,1
w10102219,ez5awwtnqq,Nick_Dissertation_EX2_EP,1,23,2022-04-26T03:57:21+00:00,8.4978978633881,3,Pure_Forward.csv,READVersionA.csv,"Read Pure F A","Read Pure F A",ROOT,PLANT,Study1,F,13,10,STUDY,8,8,,Study/JOL,"Study Phase",8002,,,-1,-1,,,,1
w10102219,ez5awwtnqq,Nick_Dissertation_EX2_EP,1,24,2022-04-26T03:57:30+00:00,8.3496911525726,3,Pure_Forward.csv,READVersionA.csv,"Read Pure F A","Read Pure F A",GEOLOGY,ROCK,Study1,F,19,30,STUDY,8,8,,Study/JOL,"Study Phase",8004,,,-1,-1,,,,1
w10102219,ez5awwtnqq,Nick_Dissertation_EX2_EP,1,25,2022-04-26T03:57:38+00:00,8.6540369987488,3,Pure_Forward.csv,READVersionA.csv,"Read Pure F A","Read Pure F A",HYGIENE,CLEAN,Study1,F,17,11,STUDY,8,8,,Study/JOL,"Study Phase",8002,,,-1,-1,,,,1
w10102219,ez5awwtnqq,Nick_Dissertation_EX2_EP,1,26,2022-04-26T03:57:48+00:00,9.2430899143219,3,Pure_Forward.csv,READVersionA.csv,"Read Pure F A","Read Pure F A",HORNET,STING,Study1,F,11,46,STUDY,8,8,,Study/JOL,"Study Phase",8001,,,-1,-1,,,,1
w10102219,ez5awwtnqq,Nick_Dissertation_EX2_EP,1,27,2022-04-26T03:57:57+00:00,9.2397360801697,3,Pure_Forward.csv,READVersionA.csv,"Read Pure F A","Read Pure F A",DELINQUENT,BAD,Study1,F,6,36,STUDY,8,8,,Study/JOL,"Study Phase",8002,,,-1,-1,,,,1
w10102219,ez5awwtnqq,Nick_Dissertation_EX2_EP,1,28,2022-04-26T03:58:07+00:00,10.04918885231,3,Pure_Forward.csv,READVersionA.csv,"Read Pure F A","Read Pure F A",PAW,DOG,Study1,F,15,9,STUDY,8,8,,Study/JOL,"Study Phase",8004,,,-1,-1,,,,1
w10102219,ez5awwtnqq,Nick_Dissertation_EX2_EP,1,29,2022-04-26T03:58:15+00:00,8.2625350952148,3,Pure_Forward.csv,READVersionA.csv,"Read Pure F A","Read Pure F A",CHISEL,HAMMER,Study1,F,9,28,STUDY,8,8,,Study/JOL,"Study Phase",8004,,,-1,-1,,,,1
w10102219,ez5awwtnqq,Nick_Dissertation_EX2_EP,1,30,2022-04-26T03:58:24+00:00,8.4146108627319,3,Pure_Forward.csv,READVersionA.csv,"Read Pure F A","Read Pure F A",BRAWL,FIGHT,Study1,F,85,41,STUDY,8,8,,Study/JOL,"Study Phase",8004,,,-1,-1,,,,1
w10102219,ez5awwtnqq,Nick_Dissertation_EX2_EP,1,31,2022-04-26T03:58:32+00:00,8.2564980983734,3,Pure_Forward.csv,READVersionA.csv,"Read Pure F A","Read Pure F A",WINDSHIELD,CAR,Study1,F,67,21,STUDY,8,8,,Study/JOL,"Study Phase",8004,,,-1,-1,,,,1
w10102219,ez5awwtnqq,Nick_Dissertation_EX2_EP,1,32,2022-04-26T03:58:40+00:00,8.4599668979645,3,Pure_Forward.csv,READVersionA.csv,"Read Pure F A","Read Pure F A",DIGESTION,STOMACH,Study1,F,7,45,STUDY,8,8,,Study/JOL,"Study Phase",8003,,,-1,-1,,,,1
w10102219,ez5awwtnqq,Nick_Dissertation_EX2_EP,1,33,2022-04-26T03:58:49+00:00,8.4973680973053,3,Pure_Forward.csv,READVersionA.csv,"Read Pure F A","Read Pure F A",REVOLUTION,WAR,Study1,F,20,19,STUDY,8,8,,Study/JOL,"Study Phase",8003,,,-1,-1,,,,1
w10102219,ez5awwtnqq,Nick_Dissertation_EX2_EP,1,34,2022-04-26T03:58:57+00:00,8.5500340461731,3,Pure_Forward.csv,READVersionA.csv,"Read Pure F A","Read Pure F A",NAP,SLEEP,Study1,F,84,15,STUDY,8,8,,Study/JOL,"Study Phase",8003,,,-1,-1,,,,1
w10102219,ez5awwtnqq,Nick_Dissertation_EX2_EP,1,35,2022-04-26T03:59:06+00:00,8.5153739452362,3,Pure_Forward.csv,READVersionA.csv,"Read Pure F A","Read Pure F A",WAGE,MONEY,Study1,F,8,23,STUDY,8,8,,Study/JOL,"Study Phase",8003,,,-1,-1,,,,1
w10102219,ez5awwtnqq,Nick_Dissertation_EX2_EP,1,36,2022-04-26T03:59:14+00:00,8.4570589065552,3,Pure_Forward.csv,READVersionA.csv,"Read Pure F A","Read Pure F A",BALLOON,POP,Study1,F,73,27,STUDY,8,8,,Study/JOL,"Study Phase",8003,,,-1,-1,,,,1
w10102219,ez5awwtnqq,Nick_Dissertation_EX2_EP,1,37,2022-04-26T03:59:23+00:00,8.5119631290436,3,Pure_Forward.csv,READVersionA.csv,"Read Pure F A","Read Pure F A",BITTER,COLD,Study1,F,12,38,STUDY,8,8,,Study/JOL,"Study Phase",8004,,,-1,-1,,,,1
w10102219,ez5awwtnqq,Nick_Dissertation_EX2_EP,1,38,2022-04-26T03:59:31+00:00,8.2634949684143,3,Pure_Forward.csv,READVersionA.csv,"Read Pure F A","Read Pure F A",ORCHID,FLOWER,Study1,F,24,18,STUDY,8,8,,Study/JOL,"Study Phase",8006,,,-1,-1,,,,1
w10102219,ez5awwtnqq,Nick_Dissertation_EX2_EP,1,39,2022-04-26T03:59:39+00:00,8.2542409896851,3,Pure_Forward.csv,READVersionA.csv,"Read Pure F A","Read Pure F A",PANTHER,CAT,Study1,F,76,40,STUDY,8,8,,Study/JOL,"Study Phase",8004,,,-1,-1,,,,1
w10102219,ez5awwtnqq,Nick_Dissertation_EX2_EP,1,40,2022-04-26T03:59:48+00:00,8.4143590927124,3,Pure_Forward.csv,READVersionA.csv,"Read Pure F A","Read Pure F A",LEAGUE,BASEBALL,Study1,F,81,35,STUDY,8,8,,Study/JOL,"Study Phase",8003,,,-1,-1,,,,1
w10102219,ez5awwtnqq,Nick_Dissertation_EX2_EP,1,41,2022-04-26T03:59:56+00:00,8.2629969120026,3,Pure_Forward.csv,READVersionA.csv,"Read Pure F A","Read Pure F A",FLIP,TURN,Study1,F,66,33,STUDY,8,8,,Study/JOL,"Study Phase",8002,,,-1,-1,,,,1
w10102219,ez5awwtnqq,Nick_Dissertation_EX2_EP,1,42,2022-04-26T04:00:05+00:00,8.5326340198517,3,Pure_Forward.csv,READVersionA.csv,"Read Pure F A","Read Pure F A",CREDIT,CARD,Study1,F,23,39,STUDY,8,8,,Study/JOL,"Study Phase",8003,,,-1,-1,,,,1
w10102219,ez5awwtnqq,Nick_Dissertation_EX2_EP,1,43,2022-04-26T04:00:14+00:00,9.0072510242462,3,Pure_Forward.csv,READVersionA.csv,"Read Pure F A","Read Pure F A",SARDINE,FISH,Study1,F,80,43,STUDY,8,8,,Study/JOL,"Study Phase",8003,,,-1,-1,,,,1
w10102219,ez5awwtnqq,Nick_Dissertation_EX2_EP,1,44,2022-04-26T04:00:22+00:00,8.2727029323578,3,Pure_Forward.csv,READVersionA.csv,"Read Pure F A","Read Pure F A",STRAWBERRY,FRUIT,Study1,F,74,24,STUDY,8,8,,Study/JOL,"Study Phase",8003,,,-1,-1,,,,1
w10102219,ez5awwtnqq,Nick_Dissertation_EX2_EP,1,45,2022-04-26T04:00:30+00:00,8.2637441158295,3,Pure_Forward.csv,READVersionA.csv,"Read Pure F A","Read Pure F A",BANKER,MONEY,Study1,F,82,34,STUDY,8,8,,Study/JOL,"Study Phase",8003,,,-1,-1,,,,1
w10102219,ez5awwtnqq,Nick_Dissertation_EX2_EP,1,46,2022-04-26T04:00:39+00:00,8.3727669715881,3,Pure_Forward.csv,READVersionA.csv,"Read Pure F A","Read Pure F A",WAY,OUT,Study1,F,16,26,STUDY,8,8,,Study/JOL,"Study Phase",8002,,,-1,-1,,,,1
w10102219,ez5awwtnqq,Nick_Dissertation_EX2_EP,1,47,2022-04-26T04:00:47+00:00,8.4010589122772,3,Pure_Forward.csv,READVersionA.csv,"Read Pure F A","Read Pure F A",SHERRIF,POLICE,BUFFER2,Buffer,87,48,STUDY,8,8,,Study/JOL,BUFFER2,8005,,,-1,-1,,,,1
w10102219,ez5awwtnqq,Nick_Dissertation_EX2_EP,1,48,2022-04-26T04:00:55+00:00,8.4794819355011,3,Pure_Forward.csv,READVersionA.csv,"Read Pure F A","Read Pure F A",MALT,CHOCOLATE,BUFFER2,Buffer,88,51,STUDY,8,8,,Study/JOL,BUFFER2,8003,,,-1,-1,,,,1
w10102219,ez5awwtnqq,Nick_Dissertation_EX2_EP,1,49,2022-04-26T04:01:04+00:00,8.4768431186676,3,Pure_Forward.csv,READVersionA.csv,"Read Pure F A","Read Pure F A",THING,STUFF,BUFFER2,Buffer,90,50,STUDY,8,8,,Study/JOL,BUFFER2,8003,,,-1,-1,,,,1
w10102219,ez5awwtnqq,Nick_Dissertation_EX2_EP,1,50,2022-04-26T04:01:13+00:00,8.6478650569916,3,Pure_Forward.csv,READVersionA.csv,"Read Pure F A","Read Pure F A",GEESE,GOOSE,BUFFER2,Buffer,86,47,STUDY,8,8,,Study/JOL,BUFFER2,8003,,,-1,-1,,,,1
w10102219,ez5awwtnqq,Nick_Dissertation_EX2_EP,1,51,2022-04-26T04:01:21+00:00,8.5177478790283,3,Pure_Forward.csv,READVersionA.csv,"Read Pure F A","Read Pure F A",MOON,SPACE,BUFFER2,Buffer,89,49,STUDY,8,8,,Study/JOL,BUFFER2,8004,,,-1,-1,,,,1
w10102219,ez5awwtnqq,Nick_Dissertation_EX2_EP,1,52,2022-04-26T04:01:25+00:00,3.4878461360931,3,Pure_Forward.csv,READVersionA.csv,"Read Pure F A","Read Pure F A",,,,,,0,Instruct,User,-,"You have completed this section. Please press Enter.",Filler_Instruction,Instruct2,3233,,,-1,-1,,,,1
w10102219,ez5awwtnqq,Nick_Dissertation_EX2_EP,1,53,2022-04-26T04:03:26+00:00,120.96431779861,3,Pure_Forward.csv,READVersionA.csv,"Read Pure F A","Read Pure F A",,,,,,0,FreeRecall,120,120,"Please list the 50 US states in alphabetical order. The task will automatically advance to the next screen after two minutes.",,Filler1,120003,"Alaska Arizona Alabama Arkansas California Colorado Conneticut Delaware Florida Georgia Hawaii Idaho Illinois Indiana Iowa Kansa Kentucky LOI",0,29297,118728,0,0,,1
w10102219,ez5awwtnqq,Nick_Dissertation_EX2_EP,1,54,2022-04-26T04:03:38+00:00,12.322803020477,3,Pure_Forward.csv,READVersionA.csv,"Read Pure F A","Read Pure F A",,,,,,0,Instruct,-,10,"You will now be presented with the first word from each of the previously studied item pairs. Please type the missing word. If you do not know the word, you may guess or press Enter to skip forward to the next pair.",,Instruct3,11293,,,-1,-1,,,,0.754
w10102219,ez5awwtnqq,Nick_Dissertation_EX2_EP,1,55,2022-04-26T04:03:46+00:00,8.4529070854187,3,Pure_Forward.csv,READVersionA.csv,"Read Pure F A","Read Pure F A",REVENGE,EVEN,Study1,F,72,8,Test,User,-,,Recall,Recall1,8135,angry,22.222222222222,3486,6771,0,0,,1
w10102219,ez5awwtnqq,Nick_Dissertation_EX2_EP,1,56,2022-04-26T04:03:50+00:00,3.4133780002594,3,Pure_Forward.csv,READVersionA.csv,"Read Pure F A","Read Pure F A",PANTHER,CAT,Study1,F,76,40,Test,User,-,,Recall,Recall1,3058,cat,100,2230,2891,1,1,,1
w10102219,ez5awwtnqq,Nick_Dissertation_EX2_EP,1,57,2022-04-26T04:03:54+00:00,4.0994091033936,3,Pure_Forward.csv,READVersionA.csv,"Read Pure F A","Read Pure F A",STRAWBERRY,FRUIT,Study1,F,74,24,Test,User,-,,Recall,Recall1,3844,fruit,100,2525,3426,1,1,,1
w10102219,ez5awwtnqq,Nick_Dissertation_EX2_EP,1,58,2022-04-26T04:03:57+00:00,2.8543269634247,3,Pure_Forward.csv,READVersionA.csv,"Read Pure F A","Read Pure F A",CREDIT,CARD,Study1,F,23,39,Test,User,-,,Recall,Recall1,2610,card,100,1445,2438,1,1,,1
w10102219,ez5awwtnqq,Nick_Dissertation_EX2_EP,1,59,2022-04-26T04:04:01+00:00,4.5185480117798,3,Pure_Forward.csv,READVersionA.csv,"Read Pure F A","Read Pure F A",WINDSHIELD,CAR,Study1,F,67,21,Test,User,-,,Recall,Recall1,3429,wipers,22.222222222222,2003,3021,0,0,,1
w10102219,ez5awwtnqq,Nick_Dissertation_EX2_EP,1,60,2022-04-26T04:04:08+00:00,6.5236678123474,3,Pure_Forward.csv,READVersionA.csv,"Read Pure F A","Read Pure F A",BANKER,MONEY,Study1,F,82,34,Test,User,-,,Recall,Recall1,6263,money,100,3906,5003,1,1,,1
w10102219,ez5awwtnqq,Nick_Dissertation_EX2_EP,1,61,2022-04-26T04:04:14+00:00,5.8856642246246,3,Pure_Forward.csv,READVersionA.csv,"Read Pure F A","Read Pure F A",AIRCRAFT,PLANE,Study1,F,79,20,Test,User,-,,Recall,Recall1,5628,plane,100,1585,5422,1,1,,1
w10102219,ez5awwtnqq,Nick_Dissertation_EX2_EP,1,62,2022-04-26T04:04:16+00:00,2.8573169708252,3,Pure_Forward.csv,READVersionA.csv,"Read Pure F A","Read Pure F A",HERD,COW,Study1,F,22,12,Test,User,-,,Recall,Recall1,2435,cow,100,1329,2182,1,1,,1
w10102219,ez5awwtnqq,Nick_Dissertation_EX2_EP,1,63,2022-04-26T04:04:21+00:00,4.5614268779755,3,Pure_Forward.csv,READVersionA.csv,"Read Pure F A","Read Pure F A",ROOT,PLANT,Study1,F,13,10,Test,User,-,,Recall,Recall1,4310,plant,100,2180,3392,1,1,,1
w10102219,ez5awwtnqq,Nick_Dissertation_EX2_EP,1,64,2022-04-26T04:04:24+00:00,2.7883110046387,3,Pure_Forward.csv,READVersionA.csv,"Read Pure F A","Read Pure F A",BALLOON,POP,Study1,F,73,27,Test,User,-,,Recall,Recall1,2337,pop,100,1574,1921,1,1,,1
w10102219,ez5awwtnqq,Nick_Dissertation_EX2_EP,1,65,2022-04-26T04:04:27+00:00,2.7491760253906,3,Pure_Forward.csv,READVersionA.csv,"Read Pure F A","Read Pure F A",REVOLUTION,WAR,Study1,F,20,19,Test,User,-,,Recall,Recall1,2489,war,100,1554,2299,1,1,,1
w10102219,ez5awwtnqq,Nick_Dissertation_EX2_EP,1,66,2022-04-26T04:04:29+00:00,2.7740890979767,3,Pure_Forward.csv,READVersionA.csv,"Read Pure F A","Read Pure F A",GEOLOGY,ROCK,Study1,F,19,30,Test,User,-,,Recall,Recall1,2523,rock,100,1666,2167,1,1,,1
w10102219,ez5awwtnqq,Nick_Dissertation_EX2_EP,1,67,2022-04-26T04:04:34+00:00,4.3375248908997,3,Pure_Forward.csv,READVersionA.csv,"Read Pure F A","Read Pure F A",BRIDGE,WATER,Study1,F,18,13,Test,User,-,,Recall,Recall1,4086,car,50,3291,3931,0,0,,1
w10102219,ez5awwtnqq,Nick_Dissertation_EX2_EP,1,68,2022-04-26T04:04:37+00:00,3.5420501232147,3,Pure_Forward.csv,READVersionA.csv,"Read Pure F A","Read Pure F A",BITTER,COLD,Study1,F,12,38,Test,User,-,,Recall,Recall1,3006,sweet,0,1353,2777,0,0,,1
w10102219,ez5awwtnqq,Nick_Dissertation_EX2_EP,1,69,2022-04-26T04:04:40+00:00,2.6658759117126,3,Pure_Forward.csv,READVersionA.csv,"Read Pure F A","Read Pure F A",SWAN,BIRD,Study1,F,14,16,Test,User,-,,Recall,Recall1,2425,dove,25,1631,2170,0,0,,1
w10102219,ez5awwtnqq,Nick_Dissertation_EX2_EP,1,70,2022-04-26T04:04:43+00:00,3.0188241004944,3,Pure_Forward.csv,READVersionA.csv,"Read Pure F A","Read Pure F A",PAW,DOG,Study1,F,15,9,Test,User,-,,Recall,Recall1,2454,dog,100,1836,2195,1,1,,1
w10102219,ez5awwtnqq,Nick_Dissertation_EX2_EP,1,71,2022-04-26T04:04:48+00:00,4.7521798610687,3,Pure_Forward.csv,READVersionA.csv,"Read Pure F A","Read Pure F A",DIGESTION,STOMACH,Study1,F,7,45,Test,User,-,,Recall,Recall1,4487,stomach,100,1919,3776,1,1,,1
w10102219,ez5awwtnqq,Nick_Dissertation_EX2_EP,1,72,2022-04-26T04:04:52+00:00,3.858717918396,3,Pure_Forward.csv,READVersionA.csv,"Read Pure F A","Read Pure F A",ACTRESS,STAR,Study1,F,70,17,Test,User,-,,Recall,Recall1,3432,star,100,1625,3095,1,1,,1
w10102219,ez5awwtnqq,Nick_Dissertation_EX2_EP,1,73,2022-04-26T04:04:55+00:00,3.1116809844971,3,Pure_Forward.csv,READVersionA.csv,"Read Pure F A","Read Pure F A",ORCHID,FLOWER,Study1,F,24,18,Test,User,-,,Recall,Recall1,2861,flower,100,1630,2695,1,1,,1
w10102219,ez5awwtnqq,Nick_Dissertation_EX2_EP,1,74,2022-04-26T04:04:57+00:00,2.2597050666809,3,Pure_Forward.csv,READVersionA.csv,"Read Pure F A","Read Pure F A",COFFIN,DEAD,Study1,F,78,25,Test,User,-,,Recall,Recall1,2008,dead,100,1250,1812,1,1,,1
w10102219,ez5awwtnqq,Nick_Dissertation_EX2_EP,1,75,2022-04-26T04:05:06+00:00,8.8746900558472,3,Pure_Forward.csv,READVersionA.csv,"Read Pure F A","Read Pure F A",DELINQUENT,BAD,Study1,F,6,36,Test,User,-,,Recall,Recall1,8407,kid,33.333333333333,7704,8232,0,0,,1
w10102219,ez5awwtnqq,Nick_Dissertation_EX2_EP,1,76,2022-04-26T04:05:10+00:00,4.4223210811615,3,Pure_Forward.csv,READVersionA.csv,"Read Pure F A","Read Pure F A",SARDINE,FISH,Study1,F,80,43,Test,User,-,,Recall,Recall1,3042,fish,100,1715,2848,1,1,,1
w10102219,ez5awwtnqq,Nick_Dissertation_EX2_EP,1,77,2022-04-26T04:05:15+00:00,4.4133808612823,3,Pure_Forward.csv,READVersionA.csv,"Read Pure F A","Read Pure F A",LEAGUE,BASEBALL,Study1,F,81,35,Test,User,-,,Recall,Recall1,4170,baseball,100,2222,3867,1,1,,1
w10102219,ez5awwtnqq,Nick_Dissertation_EX2_EP,1,78,2022-04-26T04:05:19+00:00,4.2812070846558,3,Pure_Forward.csv,READVersionA.csv,"Read Pure F A","Read Pure F A",BRAWL,FIGHT,Study1,F,85,41,Test,User,-,,Recall,Recall1,4031,fight,100,1344,2324,1,1,,1
w10102219,ez5awwtnqq,Nick_Dissertation_EX2_EP,1,79,2022-04-26T04:05:22+00:00,3.2652158737183,3,Pure_Forward.csv,READVersionA.csv,"Read Pure F A","Read Pure F A",HORNET,STING,Study1,F,11,46,Test,User,-,,Recall,Recall1,2812,sting,100,1580,2497,1,1,,1
w10102219,ez5awwtnqq,Nick_Dissertation_EX2_EP,1,80,2022-04-26T04:05:29+00:00,6.5202271938324,3,Pure_Forward.csv,READVersionA.csv,"Read Pure F A","Read Pure F A",TRUTHFUL,HONEST,Study1,F,83,32,Test,User,-,,Recall,Recall1,6231,honesty,92.307692307692,2921,6026,0,1,,1
w10102219,ez5awwtnqq,Nick_Dissertation_EX2_EP,1,81,2022-04-26T04:05:32+00:00,3.0927748680115,3,Pure_Forward.csv,READVersionA.csv,"Read Pure F A","Read Pure F A",PENGUIN,BIRD,Study1,F,69,31,Test,User,-,,Recall,Recall1,2648,bird,100,1518,2371,1,1,,1
w10102219,ez5awwtnqq,Nick_Dissertation_EX2_EP,1,82,2022-04-26T04:05:37+00:00,5.3930349349976,3,Pure_Forward.csv,READVersionA.csv,"Read Pure F A","Read Pure F A",FAVORITE,BEST,Study1,F,75,29,Test,User,-,,Recall,Recall1,5114,food,0,4329,4927,0,0,,1
w10102219,ez5awwtnqq,Nick_Dissertation_EX2_EP,1,83,2022-04-26T04:05:41+00:00,4.1652271747589,3,Pure_Forward.csv,READVersionA.csv,"Read Pure F A","Read Pure F A",WAGE,MONEY,Study1,F,8,23,Test,User,-,,Recall,Recall1,3646,salary,18.181818181818,2035,3485,0,0,,1
w10102219,ez5awwtnqq,Nick_Dissertation_EX2_EP,1,84,2022-04-26T04:05:44+00:00,2.43376994133,3,Pure_Forward.csv,READVersionA.csv,"Read Pure F A","Read Pure F A",TUNA,FISH,Study1,F,25,44,Test,User,-,,Recall,Recall1,2176,fish,100,1199,1967,1,1,,1
w10102219,ez5awwtnqq,Nick_Dissertation_EX2_EP,1,85,2022-04-26T04:05:46+00:00,2.3951380252838,3,Pure_Forward.csv,READVersionA.csv,"Read Pure F A","Read Pure F A",NAP,SLEEP,Study1,F,84,15,Test,User,-,,Recall,Recall1,2139,sleep,100,1241,1830,1,1,,1
w10102219,ez5awwtnqq,Nick_Dissertation_EX2_EP,1,86,2022-04-26T04:05:52+00:00,5.5112240314484,3,Pure_Forward.csv,READVersionA.csv,"Read Pure F A","Read Pure F A",THIMBLE,THREAD,Study1,F,71,42,Test,User,-,,Recall,Recall1,5007,thread,100,3616,4814,1,1,,1
w10102219,ez5awwtnqq,Nick_Dissertation_EX2_EP,1,87,2022-04-26T04:05:55+00:00,3.1564178466797,3,Pure_Forward.csv,READVersionA.csv,"Read Pure F A","Read Pure F A",DISCUSSION,TALK,Study1,F,21,14,Test,User,-,,Recall,Recall1,2900,talk,100,1965,2579,1,1,,1
w10102219,ez5awwtnqq,Nick_Dissertation_EX2_EP,1,88,2022-04-26T04:05:58+00:00,3.0261189937592,3,Pure_Forward.csv,READVersionA.csv,"Read Pure F A","Read Pure F A",FLIP,TURN,Study1,F,66,33,Test,User,-,,Recall,Recall1,2782,flop,0,1245,2150,0,0,,1
w10102219,ez5awwtnqq,Nick_Dissertation_EX2_EP,1,89,2022-04-26T04:06:00+00:00,2.6438200473785,3,Pure_Forward.csv,READVersionA.csv,"Read Pure F A","Read Pure F A",EDITOR,NEWS,Study1,F,10,7,Test,User,-,,Recall,Recall1,2392,paper,22.222222222222,1607,2274,0,0,,1
w10102219,ez5awwtnqq,Nick_Dissertation_EX2_EP,1,90,2022-04-26T04:06:04+00:00,3.074588060379,3,Pure_Forward.csv,READVersionA.csv,"Read Pure F A","Read Pure F A",CHISEL,HAMMER,Study1,F,9,28,Test,User,-,,Recall,Recall1,2826,wood,0,2177,2673,0,0,,1
w10102219,ez5awwtnqq,Nick_Dissertation_EX2_EP,1,91,2022-04-26T04:06:07+00:00,3.7106659412384,3,Pure_Forward.csv,READVersionA.csv,"Read Pure F A","Read Pure F A",WAY,OUT,Study1,F,16,26,Test,User,-,,Recall,Recall1,3170,to,40,2748,2919,0,0,,1
w10102219,ez5awwtnqq,Nick_Dissertation_EX2_EP,1,92,2022-04-26T04:06:10+00:00,3.067822933197,3,Pure_Forward.csv,READVersionA.csv,"Read Pure F A","Read Pure F A",BREAKABLE,GLASS,Study1,F,77,37,Test,User,-,,Recall,Recall1,2594,glass,100,1561,2492,1,1,,1
w10102219,ez5awwtnqq,Nick_Dissertation_EX2_EP,1,93,2022-04-26T04:06:14+00:00,3.4889221191406,3,Pure_Forward.csv,READVersionA.csv,"Read Pure F A","Read Pure F A",HYGIENE,CLEAN,Study1,F,17,11,Test,User,-,,Recall,Recall1,3015,bath,22.222222222222,2000,2700,0,0,,1
w10102219,ez5awwtnqq,Nick_Dissertation_EX2_EP,1,94,2022-04-26T04:06:17+00:00,3.3404428958893,3,Pure_Forward.csv,READVersionA.csv,"Read Pure F A","Read Pure F A",VILLAIN,BAD,Study1,F,68,22,Test,User,-,,Recall,Recall1,3080,bad,100,2029,2850,1,1,,1
w10102219,ez5awwtnqq,Nick_Dissertation_EX2_EP,1,95,2022-04-26T04:06:29+00:00,11.476836204529,3,Pure_Forward.csv,READVersionA.csv,"Read Pure F A","Read Pure F A",,,,,,0,Instruct,-,10,"You will now be presented with a new set of word pairs. Please study each pair. Remember that your memory will be tested! Each pair will be displayed on the computer screen and will automatically advance to the next pair. Press ENTER when you are ready to begin.",Initial_Instruct,Instruct4,11153,,,-1,-1,,,,1
w10102219,ez5awwtnqq,Nick_Dissertation_EX2_EP,1,96,2022-04-26T04:06:37+00:00,8.4162240028381,3,Pure_Forward.csv,READVersionA.csv,"Read Pure F A","Read Pure F A",NOODLE,STRING,BUFFER3,Buffer,92,52,STUDY,8,8,,Study/JOL,BUFFER3,8003,,,-1,-1,,,,1
w10102219,ez5awwtnqq,Nick_Dissertation_EX2_EP,1,97,2022-04-26T04:06:45+00:00,8.3702969551086,3,Pure_Forward.csv,READVersionA.csv,"Read Pure F A","Read Pure F A",CAMP,ADVENTURE,BUFFER3,Buffer,95,56,STUDY,8,8,,Study/JOL,BUFFER3,8004,,,-1,-1,,,,1
w10102219,ez5awwtnqq,Nick_Dissertation_EX2_EP,1,98,2022-04-26T04:06:54+00:00,8.5530009269714,3,Pure_Forward.csv,READVersionA.csv,"Read Pure F A","Read Pure F A",ICE,FROZEN,BUFFER3,Buffer,94,54,STUDY,8,8,,Study/JOL,BUFFER3,8004,,,-1,-1,,,,1
w10102219,ez5awwtnqq,Nick_Dissertation_EX2_EP,1,99,2022-04-26T04:07:02+00:00,8.3476090431213,3,Pure_Forward.csv,READVersionA.csv,"Read Pure F A","Read Pure F A",CARROT,POTATO,BUFFER3,Buffer,91,55,STUDY,8,8,,Study/JOL,BUFFER3,8003,,,-1,-1,,,,1
w10102219,ez5awwtnqq,Nick_Dissertation_EX2_EP,1,100,2022-04-26T04:07:11+00:00,8.5493450164795,3,Pure_Forward.csv,READVersionA.csv,"Read Pure F A","Read Pure F A",SHRIMP,FISH,BUFFER3,Buffer,93,53,STUDY,8,8,,Study/JOL,BUFFER3,8003,,,-1,-1,,,,1
w10102219,ez5awwtnqq,Nick_Dissertation_EX2_EP,1,101,2022-04-26T04:07:19+00:00,8.5129399299622,3,Pure_Forward.csv,READVersionA.csv,"Read Pure F A","Read Pure F A",PILOT,PLANE,Study2,F,114,75,STUDY,8,8,,Study/JOL,"Study Phase2",8003,,,-1,-1,,,,1
w10102219,ez5awwtnqq,Nick_Dissertation_EX2_EP,1,102,2022-04-26T04:07:28+00:00,8.25177693367,3,Pure_Forward.csv,READVersionA.csv,"Read Pure F A","Read Pure F A",CHOP,CUT,Study2,F,167,89,STUDY,8,8,,Study/JOL,"Study Phase2",8003,,,-1,-1,,,,1
w10102219,ez5awwtnqq,Nick_Dissertation_EX2_EP,1,103,2022-04-26T04:07:36+00:00,8.4011580944061,3,Pure_Forward.csv,READVersionA.csv,"Read Pure F A","Read Pure F A",FURRY,DOG,Study2,F,162,71,STUDY,8,8,,Study/JOL,"Study Phase2",8003,,,-1,-1,,,,1
w10102219,ez5awwtnqq,Nick_Dissertation_EX2_EP,1,104,2022-04-26T04:07:45+00:00,8.5472490787506,3,Pure_Forward.csv,READVersionA.csv,"Read Pure F A","Read Pure F A",DRIVER,CAR,Study2,F,166,60,STUDY,8,8,,Study/JOL,"Study Phase2",8003,,,-1,-1,,,,1
w10102219,ez5awwtnqq,Nick_Dissertation_EX2_EP,1,105,2022-04-26T04:07:53+00:00,8.2582578659058,3,Pure_Forward.csv,READVersionA.csv,"Read Pure F A","Read Pure F A",LATCH,KEY,Study2,F,106,66,STUDY,8,8,,Study/JOL,"Study Phase2",8003,,,-1,-1,,,,1
w10102219,ez5awwtnqq,Nick_Dissertation_EX2_EP,1,106,2022-04-26T04:08:01+00:00,8.4896121025085,3,Pure_Forward.csv,READVersionA.csv,"Read Pure F A","Read Pure F A",DIVISION,MATH,Study2,F,103,87,STUDY,8,8,,Study/JOL,"Study Phase2",8003,,,-1,-1,,,,1
w10102219,ez5awwtnqq,Nick_Dissertation_EX2_EP,1,107,2022-04-26T04:08:10+00:00,8.5472939014435,3,Pure_Forward.csv,READVersionA.csv,"Read Pure F A","Read Pure F A",FANTASTIC,GREAT,Study2,F,105,73,STUDY,8,8,,Study/JOL,"Study Phase2",8003,,,-1,-1,,,,1
w10102219,ez5awwtnqq,Nick_Dissertation_EX2_EP,1,108,2022-04-26T04:08:18+00:00,8.2665839195251,3,Pure_Forward.csv,READVersionA.csv,"Read Pure F A","Read Pure F A",CLUE,GAME,Study2,F,157,59,STUDY,8,8,,Study/JOL,"Study Phase2",8002,,,-1,-1,,,,1
w10102219,ez5awwtnqq,Nick_Dissertation_EX2_EP,1,109,2022-04-26T04:08:26+00:00,8.26491522789,3,Pure_Forward.csv,READVersionA.csv,"Read Pure F A","Read Pure F A",ENOUGH,FULL,Study2,F,96,88,STUDY,8,8,,Study/JOL,"Study Phase2",8004,,,-1,-1,,,,1
w10102219,ez5awwtnqq,Nick_Dissertation_EX2_EP,1,110,2022-04-26T04:08:35+00:00,8.5261318683624,3,Pure_Forward.csv,READVersionA.csv,"Read Pure F A","Read Pure F A",CHERRY,RED,Study2,F,164,68,STUDY,8,8,,Study/JOL,"Study Phase2",8004,,,-1,-1,,,,1
w10102219,ez5awwtnqq,Nick_Dissertation_EX2_EP,1,111,2022-04-26T04:08:43+00:00,8.2604629993439,3,Pure_Forward.csv,READVersionA.csv,"Read Pure F A","Read Pure F A",CACTUS,PLANT,Study2,F,158,80,STUDY,8,8,,Study/JOL,"Study Phase2",8004,,,-1,-1,,,,1
w10102219,ez5awwtnqq,Nick_Dissertation_EX2_EP,1,112,2022-04-26T04:08:52+00:00,9.0271489620209,3,Pure_Forward.csv,READVersionA.csv,"Read Pure F A","Read Pure F A",SCALP,HEAD,Study2,F,165,85,STUDY,8,8,,Study/JOL,"Study Phase2",8003,,,-1,-1,,,,1
w10102219,ez5awwtnqq,Nick_Dissertation_EX2_EP,1,113,2022-04-26T04:09:01+00:00,8.5278291702271,3,Pure_Forward.csv,READVersionA.csv,"Read Pure F A","Read Pure F A",MULE,DONKEY,Study2,F,168,86,STUDY,8,8,,Study/JOL,"Study Phase2",8003,,,-1,-1,,,,1
w10102219,ez5awwtnqq,Nick_Dissertation_EX2_EP,1,114,2022-04-26T04:09:09+00:00,8.5066089630127,3,Pure_Forward.csv,READVersionA.csv,"Read Pure F A","Read Pure F A",FAMINE,HUNGER,Study2,F,110,95,STUDY,8,8,,Study/JOL,"Study Phase2",8004,,,-1,-1,,,,1
w10102219,ez5awwtnqq,Nick_Dissertation_EX2_EP,1,115,2022-04-26T04:09:18+00:00,8.4173419475555,3,Pure_Forward.csv,READVersionA.csv,"Read Pure F A","Read Pure F A",RACKET,BALL,Study2,F,108,61,STUDY,8,8,,Study/JOL,"Study Phase2",8002,,,-1,-1,,,,1
w10102219,ez5awwtnqq,Nick_Dissertation_EX2_EP,1,116,2022-04-26T04:09:26+00:00,8.454607963562,3,Pure_Forward.csv,READVersionA.csv,"Read Pure F A","Read Pure F A",ATTORNEY,LAW,Study2,F,104,74,STUDY,8,8,,Study/JOL,"Study Phase2",8003,,,-1,-1,,,,1
w10102219,ez5awwtnqq,Nick_Dissertation_EX2_EP,1,117,2022-04-26T04:09:34+00:00,8.2611129283905,3,Pure_Forward.csv,READVersionA.csv,"Read Pure F A","Read Pure F A",SHEARS,SCISSORS,Study2,F,172,96,STUDY,8,8,,Study/JOL,"Study Phase2",8002,,,-1,-1,,,,1
w10102219,ez5awwtnqq,Nick_Dissertation_EX2_EP,1,118,2022-04-26T04:09:43+00:00,8.2600150108337,3,Pure_Forward.csv,READVersionA.csv,"Read Pure F A","Read Pure F A",BLAZE,FIRE,Study2,F,115,72,STUDY,8,8,,Study/JOL,"Study Phase2",8004,,,-1,-1,,,,1
w10102219,ez5awwtnqq,Nick_Dissertation_EX2_EP,1,119,2022-04-26T04:09:51+00:00,8.2585480213165,3,Pure_Forward.csv,READVersionA.csv,"Read Pure F A","Read Pure F A",DROWSY,SLEEP,Study2,F,111,64,STUDY,8,8,,Study/JOL,"Study Phase2",8003,,,-1,-1,,,,1
w10102219,ez5awwtnqq,Nick_Dissertation_EX2_EP,1,120,2022-04-26T04:09:59+00:00,8.3898329734802,3,Pure_Forward.csv,READVersionA.csv,"Read Pure F A","Read Pure F A",CHILI,HOT,Study2,F,107,91,STUDY,8,8,,Study/JOL,"Study Phase2",8003,,,-1,-1,,,,1
w10102219,ez5awwtnqq,Nick_Dissertation_EX2_EP,1,121,2022-04-26T04:10:08+00:00,8.4491360187531,3,Pure_Forward.csv,READVersionA.csv,"Read Pure F A","Read Pure F A",SIP,DRINK,Study2,F,97,70,STUDY,8,8,,Study/JOL,"Study Phase2",8005,,,-1,-1,,,,1
w10102219,ez5awwtnqq,Nick_Dissertation_EX2_EP,1,122,2022-04-26T04:10:16+00:00,8.2665641307831,3,Pure_Forward.csv,READVersionA.csv,"Read Pure F A","Read Pure F A",STENCH,SMELL,Study2,F,112,65,STUDY,8,8,,Study/JOL,"Study Phase2",8003,,,-1,-1,,,,1
w10102219,ez5awwtnqq,Nick_Dissertation_EX2_EP,1,123,2022-04-26T04:10:25+00:00,8.5603029727936,3,Pure_Forward.csv,READVersionA.csv,"Read Pure F A","Read Pure F A",WAGE,MONEY,Study1,F,8,23,STUDY,8,8,,Study/JOL,"Study Phase2",8002,,,-1,-1,,,,1
w10102219,ez5awwtnqq,Nick_Dissertation_EX2_EP,1,124,2022-04-26T04:10:33+00:00,8.2798919677734,3,Pure_Forward.csv,READVersionA.csv,"Read Pure F A","Read Pure F A",LITTER,TRASH,Study2,F,163,84,STUDY,8,8,,Study/JOL,"Study Phase2",8004,,,-1,-1,,,,1
w10102219,ez5awwtnqq,Nick_Dissertation_EX2_EP,1,125,2022-04-26T04:10:41+00:00,8.500617980957,3,Pure_Forward.csv,READVersionA.csv,"Read Pure F A","Read Pure F A",CAVE,DARK,Study2,F,98,90,STUDY,8,8,,Study/JOL,"Study Phase2",8003,,,-1,-1,,,,1
w10102219,ez5awwtnqq,Nick_Dissertation_EX2_EP,1,126,2022-04-26T04:10:50+00:00,8.4913699626923,3,Pure_Forward.csv,READVersionA.csv,"Read Pure F A","Read Pure F A",WASP,BUG,Study2,F,102,93,STUDY,8,8,,Study/JOL,"Study Phase2",8003,,,-1,-1,,,,1
w10102219,ez5awwtnqq,Nick_Dissertation_EX2_EP,1,127,2022-04-26T04:10:58+00:00,8.2572009563446,3,Pure_Forward.csv,READVersionA.csv,"Read Pure F A","Read Pure F A",DETECTIVE,MYSTERY,Study2,F,160,77,STUDY,8,8,,Study/JOL,"Study Phase2",8003,,,-1,-1,,,,1
w10102219,ez5awwtnqq,Nick_Dissertation_EX2_EP,1,128,2022-04-26T04:11:06+00:00,8.2611181735992,3,Pure_Forward.csv,READVersionA.csv,"Read Pure F A","Read Pure F A",EXTENSION,LONG,Study2,F,156,94,STUDY,8,8,,Study/JOL,"Study Phase2",8002,,,-1,-1,,,,1
w10102219,ez5awwtnqq,Nick_Dissertation_EX2_EP,1,129,2022-04-26T04:11:15+00:00,8.2591459751129,3,Pure_Forward.csv,READVersionA.csv,"Read Pure F A","Read Pure F A",CLUE,GAME,Study2,F,157,59,STUDY,8,8,,Study/JOL,"Study Phase2",8003,,,-1,-1,,,,1
w10102219,ez5awwtnqq,Nick_Dissertation_EX2_EP,1,130,2022-04-26T04:11:23+00:00,8.4863388538361,3,Pure_Forward.csv,READVersionA.csv,"Read Pure F A","Read Pure F A",DOCUMENT,PAPER,Study2,F,169,82,STUDY,8,8,,Study/JOL,"Study Phase2",8003,,,-1,-1,,,,1
w10102219,ez5awwtnqq,Nick_Dissertation_EX2_EP,1,131,2022-04-26T04:11:32+00:00,8.4872200489044,3,Pure_Forward.csv,READVersionA.csv,"Read Pure F A","Read Pure F A",GROWTH,HEIGHT,Study2,F,100,81,STUDY,8,8,,Study/JOL,"Study Phase2",8002,,,-1,-1,,,,1
w10102219,ez5awwtnqq,Nick_Dissertation_EX2_EP,1,132,2022-04-26T04:11:40+00:00,8.738049030304,3,Pure_Forward.csv,READVersionA.csv,"Read Pure F A","Read Pure F A",DINE,EAT,Study2,F,171,76,STUDY,8,8,,Study/JOL,"Study Phase2",8004,,,-1,-1,,,,1
w10102219,ez5awwtnqq,Nick_Dissertation_EX2_EP,1,133,2022-04-26T04:11:49+00:00,8.6102690696716,3,Pure_Forward.csv,READVersionA.csv,"Read Pure F A","Read Pure F A",AFFECTION,LOVE,Study2,F,175,92,STUDY,8,8,,Study/JOL,"Study Phase2",8003,,,-1,-1,,,,1
w10102219,ez5awwtnqq,Nick_Dissertation_EX2_EP,1,134,2022-04-26T04:11:57+00:00,8.4283928871155,3,Pure_Forward.csv,READVersionA.csv,"Read Pure F A","Read Pure F A",ATTIRE,CLOTHES,Study2,F,113,67,STUDY,8,8,,Study/JOL,"Study Phase2",8004,,,-1,-1,,,,1
w10102219,ez5awwtnqq,Nick_Dissertation_EX2_EP,1,135,2022-04-26T04:12:06+00:00,8.7344219684601,3,Pure_Forward.csv,READVersionA.csv,"Read Pure F A","Read Pure F A",FEUD,FIGHT,Study2,F,173,69,STUDY,8,8,,Study/JOL,"Study Phase2",8003,,,-1,-1,,,,1
w10102219,ez5awwtnqq,Nick_Dissertation_EX2_EP,1,136,2022-04-26T04:12:14+00:00,8.273561000824,3,Pure_Forward.csv,READVersionA.csv,"Read Pure F A","Read Pure F A",INCENSE,SMELL,Study2,F,170,78,STUDY,8,8,,Study/JOL,"Study Phase2",8003,,,-1,-1,,,,1
w10102219,ez5awwtnqq,Nick_Dissertation_EX2_EP,1,137,2022-04-26T04:12:23+00:00,8.2654240131378,3,Pure_Forward.csv,READVersionA.csv,"Read Pure F A","Read Pure F A",CHILL,COLD,Study2,F,174,57,STUDY,8,8,,Study/JOL,"Study Phase2",8005,,,-1,-1,,,,1
w10102219,ez5awwtnqq,Nick_Dissertation_EX2_EP,1,138,2022-04-26T04:12:31+00:00,8.4714901447296,3,Pure_Forward.csv,READVersionA.csv,"Read Pure F A","Read Pure F A",CHORE,WORK,Study2,F,109,62,STUDY,8,8,,Study/JOL,"Study Phase2",8003,,,-1,-1,,,,1
w10102219,ez5awwtnqq,Nick_Dissertation_EX2_EP,1,139,2022-04-26T04:12:40+00:00,8.4286119937897,3,Pure_Forward.csv,READVersionA.csv,"Read Pure F A","Read Pure F A",ADJOURN,END,Study2,F,161,79,STUDY,8,8,,Study/JOL,"Study Phase2",8003,,,-1,-1,,,,1
w10102219,ez5awwtnqq,Nick_Dissertation_EX2_EP,1,140,2022-04-26T04:12:50+00:00,9.9964179992676,3,Pure_Forward.csv,READVersionA.csv,"Read Pure F A","Read Pure F A",SEIZE,TAKE,Study2,F,99,63,STUDY,8,8,,Study/JOL,"Study Phase2",8003,,,-1,-1,,,,1
w10102219,ez5awwtnqq,Nick_Dissertation_EX2_EP,1,141,2022-04-26T04:12:58+00:00,8.5258359909058,3,Pure_Forward.csv,READVersionA.csv,"Read Pure F A","Read Pure F A",MONTH,YEAR,BUFFER4,Buffer,177,99,STUDY,8,8,,Study/JOL,BUFFER4,8004,,,-1,-1,,,,1
w10102219,ez5awwtnqq,Nick_Dissertation_EX2_EP,1,142,2022-04-26T04:13:06+00:00,8.2985129356384,3,Pure_Forward.csv,READVersionA.csv,"Read Pure F A","Read Pure F A",DAYS,WEEKS,BUFFER4,Buffer,176,101,STUDY,8,8,,Study/JOL,BUFFER4,8003,,,-1,-1,,,,1
w10102219,ez5awwtnqq,Nick_Dissertation_EX2_EP,1,143,2022-04-26T04:13:15+00:00,8.333920955658,3,Pure_Forward.csv,READVersionA.csv,"Read Pure F A","Read Pure F A",OCTOBER,SPOOKY,BUFFER4,Buffer,180,98,STUDY,8,8,,Study/JOL,BUFFER4,8002,,,-1,-1,,,,1
w10102219,ez5awwtnqq,Nick_Dissertation_EX2_EP,1,144,2022-04-26T04:13:24+00:00,9.3377220630646,3,Pure_Forward.csv,READVersionA.csv,"Read Pure F A","Read Pure F A",SPRING,MARCH,BUFFER4,Buffer,179,97,STUDY,8,8,,Study/JOL,BUFFER4,8003,,,-1,-1,,,,1
w10102219,ez5awwtnqq,Nick_Dissertation_EX2_EP,1,145,2022-04-26T04:13:32+00:00,8.3495750427246,3,Pure_Forward.csv,READVersionA.csv,"Read Pure F A","Read Pure F A",TOOL,SHED,BUFFER4,Buffer,178,100,STUDY,8,8,,Study/JOL,BUFFER4,8003,,,-1,-1,,,,1
w10102219,ez5awwtnqq,Nick_Dissertation_EX2_EP,1,146,2022-04-26T04:13:36+00:00,3.5700418949127,3,Pure_Forward.csv,READVersionA.csv,"Read Pure F A","Read Pure F A",,,,,,0,Instruct,User,-,"You have completed this section. Please press Enter.",Filler_Instruction,Instruct5,2445,,,-1,-1,,,,1
w10102219,ez5awwtnqq,Nick_Dissertation_EX2_EP,1,147,2022-04-26T04:15:36+00:00,120.48542809486,3,Pure_Forward.csv,READVersionA.csv,"Read Pure F A","Read Pure F A",,,,,,0,FreeRecall,120,120,"Please list the 50 US states in reverse alphabetical order (z - a). The task will automatically advance to the next screen after two minutes.",,Filler2,120003,"Wyoming Wisconsin West Virginia Washington Virginia Vermont Utah Texas Tennessee South Dakota South Carolina Rhode Island Pennsylvania Oregon Oklahoma Ohio North Dakota North Carolina ",0,11950,118656,0,0,,1
w10102219,ez5awwtnqq,Nick_Dissertation_EX2_EP,1,148,2022-04-26T04:15:49+00:00,12.52169084549,3,Pure_Forward.csv,READVersionA.csv,"Read Pure F A","Read Pure F A",,,,,,0,Instruct,-,10,"You will now be presented with the first word from each of the previously studied item pairs. Please type the missing word. If you do not know the word, you may guess or press Enter to skip forward to the next pair.",,Instruct6,12254,,,-1,-1,,,,1
w10102219,ez5awwtnqq,Nick_Dissertation_EX2_EP,1,149,2022-04-26T04:15:56+00:00,6.9002821445465,3,Pure_Forward.csv,READVersionA.csv,"Read Pure F A","Read Pure F A",CHOP,CUT,Study2,F,167,89,Test,User,-,,Recall,Recall2,6639,onions,0,3161,4678,0,0,,1
w10102219,ez5awwtnqq,Nick_Dissertation_EX2_EP,1,150,2022-04-26T04:16:02+00:00,6.0402989387512,3,Pure_Forward.csv,READVersionA.csv,"Read Pure F A","Read Pure F A",ATTORNEY,LAW,Study2,F,104,74,Test,User,-,,Recall,Recall2,4053,lawyer,66.666666666667,1999,3473,0,0,,1
w10102219,ez5awwtnqq,Nick_Dissertation_EX2_EP,1,151,2022-04-26T04:16:05+00:00,3.4555549621582,3,Pure_Forward.csv,READVersionA.csv,"Read Pure F A","Read Pure F A",LATCH,KEY,Study2,F,106,66,Test,User,-,,Recall,Recall2,3159,hook,28.571428571429,1843,2803,0,0,,1
w10102219,ez5awwtnqq,Nick_Dissertation_EX2_EP,1,152,2022-04-26T04:16:12+00:00,6.6606049537659,3,Pure_Forward.csv,READVersionA.csv,"Read Pure F A","Read Pure F A",CHORE,WORK,Study2,F,109,62,Test,User,-,,Recall,Recall2,6409,clean,0,5067,6051,0,0,,1
w10102219,ez5awwtnqq,Nick_Dissertation_EX2_EP,1,153,2022-04-26T04:16:17+00:00,5.4743840694427,3,Pure_Forward.csv,READVersionA.csv,"Read Pure F A","Read Pure F A",DINE,EAT,Study2,F,171,76,Test,User,-,,Recall,Recall2,4146,dash,28.571428571429,3141,3995,0,0,,1
w10102219,ez5awwtnqq,Nick_Dissertation_EX2_EP,1,154,2022-04-26T04:16:20+00:00,2.4985859394073,3,Pure_Forward.csv,READVersionA.csv,"Read Pure F A","Read Pure F A",SIP,DRINK,Study2,F,97,70,Test,User,-,,Recall,Recall2,2247,tea,0,1575,2090,0,0,,1
w10102219,ez5awwtnqq,Nick_Dissertation_EX2_EP,1,155,2022-04-26T04:16:23+00:00,2.5123109817505,3,Pure_Forward.csv,READVersionA.csv,"Read Pure F A","Read Pure F A",DOCUMENT,PAPER,Study2,F,169,82,Test,User,-,,Recall,Recall2,2272,paper,100,1504,2097,1,1,,1
w10102219,ez5awwtnqq,Nick_Dissertation_EX2_EP,1,156,2022-04-26T04:16:26+00:00,3.0854110717773,3,Pure_Forward.csv,READVersionA.csv,"Read Pure F A","Read Pure F A",EXTENSION,LONG,Study2,F,156,94,Test,User,-,,Recall,Recall2,2836,long,100,1994,2651,1,1,,1
w10102219,ez5awwtnqq,Nick_Dissertation_EX2_EP,1,157,2022-04-26T04:16:28+00:00,2.0595271587372,3,Pure_Forward.csv,READVersionA.csv,"Read Pure F A","Read Pure F A",CHILI,HOT,Study2,F,107,91,Test,User,-,,Recall,Recall2,1803,hot,100,1309,1604,1,1,,1
w10102219,ez5awwtnqq,Nick_Dissertation_EX2_EP,1,158,2022-04-26T04:16:32+00:00,3.9639809131622,3,Pure_Forward.csv,READVersionA.csv,"Read Pure F A","Read Pure F A",ENOUGH,FULL,Study2,F,96,88,Test,User,-,,Recall,Recall2,3704,ample,22.222222222222,2838,3510,0,0,,1
w10102219,ez5awwtnqq,Nick_Dissertation_EX2_EP,1,159,2022-04-26T04:16:35+00:00,3.6926410198212,3,Pure_Forward.csv,READVersionA.csv,"Read Pure F A","Read Pure F A",SCALP,HEAD,Study2,F,165,85,Test,User,-,,Recall,Recall2,3212,head,100,2328,3032,1,1,,1
w10102219,ez5awwtnqq,Nick_Dissertation_EX2_EP,1,160,2022-04-26T04:16:39+00:00,3.7036559581757,3,Pure_Forward.csv,READVersionA.csv,"Read Pure F A","Read Pure F A",LITTER,TRASH,Study2,F,163,84,Test,User,-,,Recall,Recall2,3456,trash,100,1837,3334,1,1,,1
w10102219,ez5awwtnqq,Nick_Dissertation_EX2_EP,1,161,2022-04-26T04:16:42+00:00,3.2389330863953,3,Pure_Forward.csv,READVersionA.csv,"Read Pure F A","Read Pure F A",PILOT,PLANE,Study2,F,114,75,Test,User,-,,Recall,Recall2,2664,plane,100,1636,2456,1,1,,1
w10102219,ez5awwtnqq,Nick_Dissertation_EX2_EP,1,162,2022-04-26T04:16:48+00:00,5.3037629127502,3,Pure_Forward.csv,READVersionA.csv,"Read Pure F A","Read Pure F A",CHERRY,RED,Study2,F,164,68,Test,User,-,,Recall,Recall2,5049,stem,28.571428571429,4000,4716,0,0,,1
w10102219,ez5awwtnqq,Nick_Dissertation_EX2_EP,1,163,2022-04-26T04:16:50+00:00,2.862457036972,3,Pure_Forward.csv,READVersionA.csv,"Read Pure F A","Read Pure F A",CAVE,DARK,Study2,F,98,90,Test,User,-,,Recall,Recall2,2599,man,28.571428571429,2000,2274,0,0,,1
w10102219,ez5awwtnqq,Nick_Dissertation_EX2_EP,1,164,2022-04-26T04:16:54+00:00,3.6968848705292,3,Pure_Forward.csv,READVersionA.csv,"Read Pure F A","Read Pure F A",FAMINE,HUNGER,Study2,F,110,95,Test,User,-,,Recall,Recall2,3168,hunger,100,1829,2865,1,1,,1
w10102219,ez5awwtnqq,Nick_Dissertation_EX2_EP,1,165,2022-04-26T04:16:57+00:00,2.4517340660095,3,Pure_Forward.csv,READVersionA.csv,"Read Pure F A","Read Pure F A",WAGE,MONEY,Study1,F,8,23,Test,User,-,,Recall,Recall2,2203,money,100,1122,2075,1,1,,1
w10102219,ez5awwtnqq,Nick_Dissertation_EX2_EP,1,166,2022-04-26T04:17:01+00:00,4.886421918869,3,Pure_Forward.csv,READVersionA.csv,"Read Pure F A","Read Pure F A",SHEARS,SCISSORS,Study2,F,172,96,Test,User,-,,Recall,Recall2,4377,scissors,100,1557,3467,1,1,,1
w10102219,ez5awwtnqq,Nick_Dissertation_EX2_EP,1,167,2022-04-26T04:17:06+00:00,4.0533092021942,3,Pure_Forward.csv,READVersionA.csv,"Read Pure F A","Read Pure F A",BLAZE,FIRE,Study2,F,115,72,Test,User,-,,Recall,Recall2,3791,fire,100,2491,3554,1,1,,1
w10102219,ez5awwtnqq,Nick_Dissertation_EX2_EP,1,168,2022-04-26T04:17:10+00:00,4.978276014328,3,Pure_Forward.csv,READVersionA.csv,"Read Pure F A","Read Pure F A",DROWSY,SLEEP,Study2,F,111,64,Test,User,-,,Recall,Recall2,4528,sleepy,90.909090909091,1874,4319,0,1,,1
w10102219,ez5awwtnqq,Nick_Dissertation_EX2_EP,1,169,2022-04-26T04:17:15+00:00,4.2488148212433,3,Pure_Forward.csv,READVersionA.csv,"Read Pure F A","Read Pure F A",FURRY,DOG,Study2,F,162,71,Test,User,-,,Recall,Recall2,3972,angry,25,2796,3806,0,0,,1
w10102219,ez5awwtnqq,Nick_Dissertation_EX2_EP,1,170,2022-04-26T04:17:17+00:00,2.7456829547882,3,Pure_Forward.csv,READVersionA.csv,"Read Pure F A","Read Pure F A",WASP,BUG,Study2,F,102,93,Test,User,-,,Recall,Recall2,2484,sting,25,1360,2275,0,0,,1
w10102219,ez5awwtnqq,Nick_Dissertation_EX2_EP,1,171,2022-04-26T04:17:21+00:00,3.2014410495758,3,Pure_Forward.csv,READVersionA.csv,"Read Pure F A","Read Pure F A",CLUE,GAME,Study2,F,157,59,Test,User,-,,Recall,Recall2,2597,guess,44.444444444444,1483,2482,0,0,,1
w10102219,ez5awwtnqq,Nick_Dissertation_EX2_EP,1,172,2022-04-26T04:17:25+00:00,4.5790860652924,3,Pure_Forward.csv,READVersionA.csv,"Read Pure F A","Read Pure F A",CHILL,COLD,Study2,F,174,57,Test,User,-,,Recall,Recall2,4192,cold,100,3482,4045,1,1,,1
w10102219,ez5awwtnqq,Nick_Dissertation_EX2_EP,1,173,2022-04-26T04:17:33+00:00,8.147479057312,3,Pure_Forward.csv,READVersionA.csv,"Read Pure F A","Read Pure F A",DETECTIVE,MYSTERY,Study2,F,160,77,Test,User,-,,Recall,Recall2,7439,investigate,33.333333333333,4027,7154,0,0,,1
w10102219,ez5awwtnqq,Nick_Dissertation_EX2_EP,1,174,2022-04-26T04:17:40+00:00,6.3734879493713,3,Pure_Forward.csv,READVersionA.csv,"Read Pure F A","Read Pure F A",DRIVER,CAR,Study2,F,166,60,Test,User,-,,Recall,Recall2,5922,car,100,5308,5796,1,1,,1
w10102219,ez5awwtnqq,Nick_Dissertation_EX2_EP,1,175,2022-04-26T04:17:43+00:00,3.4300680160522,3,Pure_Forward.csv,READVersionA.csv,"Read Pure F A","Read Pure F A",FEUD,FIGHT,Study2,F,173,69,Test,User,-,,Recall,Recall2,2836,family,36.363636363636,1287,2674,0,0,,1
w10102219,ez5awwtnqq,Nick_Dissertation_EX2_EP,1,176,2022-04-26T04:17:49+00:00,5.7692539691925,3,Pure_Forward.csv,READVersionA.csv,"Read Pure F A","Read Pure F A",ATTIRE,CLOTHES,Study2,F,113,67,Test,User,-,,Recall,Recall2,5223,wardrobe,26.666666666667,2063,5089,0,0,,1
w10102219,ez5awwtnqq,Nick_Dissertation_EX2_EP,1,177,2022-04-26T04:17:53+00:00,3.593563079834,3,Pure_Forward.csv,READVersionA.csv,"Read Pure F A","Read Pure F A",INCENSE,SMELL,Study2,F,170,78,Test,User,-,,Recall,Recall2,3097,smell,100,2142,2809,1,1,,1
w10102219,ez5awwtnqq,Nick_Dissertation_EX2_EP,1,178,2022-04-26T04:17:58+00:00,5.0460460186005,3,Pure_Forward.csv,READVersionA.csv,"Read Pure F A","Read Pure F A",RACKET,BALL,Study2,F,108,61,Test,User,-,,Recall,Recall2,4610,ball,100,1938,4363,1,1,,1
w10102219,ez5awwtnqq,Nick_Dissertation_EX2_EP,1,179,2022-04-26T04:18:00+00:00,2.5305819511414,3,Pure_Forward.csv,READVersionA.csv,"Read Pure F A","Read Pure F A",CLUE,GAME,Study2,F,157,59,Test,User,-,,Recall,Recall2,2279,guess,44.444444444444,1333,2159,0,0,,1
w10102219,ez5awwtnqq,Nick_Dissertation_EX2_EP,1,180,2022-04-26T04:18:05+00:00,4.6994769573212,3,Pure_Forward.csv,READVersionA.csv,"Read Pure F A","Read Pure F A",GROWTH,HEIGHT,Study2,F,100,81,Test,User,-,,Recall,Recall2,4449,tree,20,3563,4245,0,0,,1
w10102219,ez5awwtnqq,Nick_Dissertation_EX2_EP,1,181,2022-04-26T04:18:08+00:00,2.9215240478516,3,Pure_Forward.csv,READVersionA.csv,"Read Pure F A","Read Pure F A",STENCH,SMELL,Study2,F,112,65,Test,User,-,,Recall,Recall2,2651,smell,100,1466,2410,1,1,,1
w10102219,ez5awwtnqq,Nick_Dissertation_EX2_EP,1,182,2022-04-26T04:18:12+00:00,3.7724869251251,3,Pure_Forward.csv,READVersionA.csv,"Read Pure F A","Read Pure F A",CACTUS,PLANT,Study2,F,158,80,Test,User,-,,Recall,Recall2,3404,spike,20,2310,3177,0,0,,1
w10102219,ez5awwtnqq,Nick_Dissertation_EX2_EP,1,183,2022-04-26T04:18:14+00:00,2.8573489189148,3,Pure_Forward.csv,READVersionA.csv,"Read Pure F A","Read Pure F A",AFFECTION,LOVE,Study2,F,175,92,Test,User,-,,Recall,Recall2,2374,love,100,1482,2122,1,1,,1
w10102219,ez5awwtnqq,Nick_Dissertation_EX2_EP,1,184,2022-04-26T04:18:19+00:00,4.2129111289978,3,Pure_Forward.csv,READVersionA.csv,"Read Pure F A","Read Pure F A",ADJOURN,END,Study2,F,161,79,Test,User,-,,Recall,Recall2,3940,goodbye,20,1903,3800,0,0,,1
w10102219,ez5awwtnqq,Nick_Dissertation_EX2_EP,1,185,2022-04-26T04:18:22+00:00,3.0506639480591,3,Pure_Forward.csv,READVersionA.csv,"Read Pure F A","Read Pure F A",MULE,DONKEY,Study2,F,168,86,Test,User,-,,Recall,Recall2,2801,donkey,100,1344,2636,1,1,,1
w10102219,ez5awwtnqq,Nick_Dissertation_EX2_EP,1,186,2022-04-26T04:18:24+00:00,2.7999019622803,3,Pure_Forward.csv,READVersionA.csv,"Read Pure F A","Read Pure F A",SEIZE,TAKE,Study2,F,99,63,Test,User,-,,Recall,Recall2,2545,stop,25,1399,2209,0,0,,1
w10102219,ez5awwtnqq,Nick_Dissertation_EX2_EP,1,187,2022-04-26T04:18:28+00:00,3.750766992569,3,Pure_Forward.csv,READVersionA.csv,"Read Pure F A","Read Pure F A",FANTASTIC,GREAT,Study2,F,105,73,Test,User,-,,Recall,Recall2,3493,great,100,1466,3341,1,1,,1
w10102219,ez5awwtnqq,Nick_Dissertation_EX2_EP,1,188,2022-04-26T04:18:35+00:00,6.7519681453705,3,Pure_Forward.csv,READVersionA.csv,"Read Pure F A","Read Pure F A",DIVISION,MATH,Study2,F,103,87,Test,User,-,,Recall,Recall2,5858,seperate,33.333333333333,2120,5707,0,0,,1
w10102219,ez5awwtnqq,Nick_Dissertation_EX2_EP,1,189,2022-04-26T04:18:38+00:00,2.9240138530731,3,Pure_Forward.csv,READVersionA.csv,"Read Pure F A","Read Pure F A",,,,,,0,Instruct,User,-,"You have completed this section. Please press Enter.",,Instruct7,2178,,,-1,-1,,,,1
w10102219,ez5awwtnqq,Nick_Dissertation_EX2_EP,1,190,2022-04-26T04:18:45+00:00,6.7002701759338,3,Pure_Forward.csv,READVersionA.csv,"Read Pure F A","Read Pure F A",,,,,,0,Instruct,User,-,"The following screen will ask you a few questions abour your experience today. You must complete these questions to receive credit.",,Instruct8,5541,,,-1,-1,,,,1
