Username,ID,ExperimentName,Session,Trial,Date,TimeDif,"Condition Number","Stimuli File","Order File","Condition Description","Condition Notes",Stimuli*Cue,Stimuli*Answer,Stimuli*Shuffle,"Stimuli*Stimuli Notes",Stimuli*Value,Procedure*Item,"Procedure*Trial Type","Procedure*Max Time","Procedure*Min Time",Procedure*Text,"Procedure*Procedure Notes",Procedure*Shuffle,Response*RT,Response*Response,Response*Accuracy,Response*RTfirst,Response*RTlast,Response*strictAcc,Response*lenientAcc,Response*focus,Response*Focus
M20311420,m97ai8juwa,Nick_Dissertation_EX2_EP_MSU_TEXAS,1,1,2022-11-18T02:20:00+00:00,11.525894165039,1,Mixed_Stim.csv,READVersionA.csv,"Read Mixed A","Read Mixed A",,,,,,0,Instruct,-,10,"Please study each of the following word pairs. Remember that your memory will be tested! Each pair will be displayed on the computer screen and will automatically advance to the next pair. Press ENTER when you are ready to begin.",Initial_Instruct,Instruct1,11230,,,-1,-1,,,,1
M20311420,m97ai8juwa,Nick_Dissertation_EX2_EP_MSU_TEXAS,1,2,2022-11-18T02:20:09+00:00,8.5700578689575,1,Mixed_Stim.csv,READVersionA.csv,"Read Mixed A","Read Mixed A",SPACE,JAM,BUFFER1,Buffer,5,4,STUDY,8,8,,Study/JOL,BUFFER,8003,,,-1,-1,,,,1
M20311420,m97ai8juwa,Nick_Dissertation_EX2_EP_MSU_TEXAS,1,3,2022-11-18T02:20:17+00:00,8.3777949810028,1,Mixed_Stim.csv,READVersionA.csv,"Read Mixed A","Read Mixed A",TREES,GREEN,BUFFER1,Buffer,1,3,STUDY,8,8,,Study/JOL,BUFFER,8003,,,-1,-1,,,,1
M20311420,m97ai8juwa,Nick_Dissertation_EX2_EP_MSU_TEXAS,1,4,2022-11-18T02:20:26+00:00,8.3846080303192,1,Mixed_Stim.csv,READVersionA.csv,"Read Mixed A","Read Mixed A",PEANUT,BUTTER,BUFFER1,Buffer,3,6,STUDY,8,8,,Study/JOL,BUFFER,8001,,,-1,-1,,,,1
M20311420,m97ai8juwa,Nick_Dissertation_EX2_EP_MSU_TEXAS,1,5,2022-11-18T02:20:34+00:00,8.4307250976562,1,Mixed_Stim.csv,READVersionA.csv,"Read Mixed A","Read Mixed A",BASEBALL,CATCHER,BUFFER1,Buffer,2,5,STUDY,8,8,,Study/JOL,BUFFER,8001,,,-1,-1,,,,1
M20311420,m97ai8juwa,Nick_Dissertation_EX2_EP_MSU_TEXAS,1,6,2022-11-18T02:20:42+00:00,8.3731489181519,1,Mixed_Stim.csv,READVersionA.csv,"Read Mixed A","Read Mixed A",SCARE,HIDE,BUFFER1,Buffer,4,2,STUDY,8,8,,Study/JOL,BUFFER,8003,,,-1,-1,,,,1
M20311420,m97ai8juwa,Nick_Dissertation_EX2_EP_MSU_TEXAS,1,7,2022-11-18T02:20:51+00:00,8.3714430332184,1,Mixed_Stim.csv,READVersionA.csv,"Read Mixed A","Read Mixed A",HORNET,STING,Study1,F,11,45,STUDY,8,8,,Study/JOL,"Study Phase",8002,,,-1,-1,,,,1
M20311420,m97ai8juwa,Nick_Dissertation_EX2_EP_MSU_TEXAS,1,8,2022-11-18T02:20:59+00:00,8.3681371212006,1,Mixed_Stim.csv,READVersionA.csv,"Read Mixed A","Read Mixed A",WAY,OUT,Study1,F,16,13,STUDY,8,8,,Study/JOL,"Study Phase",8001,,,-1,-1,,,,1
M20311420,m97ai8juwa,Nick_Dissertation_EX2_EP_MSU_TEXAS,1,9,2022-11-18T02:21:08+00:00,8.3876309394836,1,Mixed_Stim.csv,READVersionA.csv,"Read Mixed A","Read Mixed A",MACHINE,POSITION,Study1,U,76,7,STUDY,8,8,,Study/JOL,"Study Phase",8002,,,-1,-1,,,,1
M20311420,m97ai8juwa,Nick_Dissertation_EX2_EP_MSU_TEXAS,1,10,2022-11-18T02:21:16+00:00,8.4199979305267,1,Mixed_Stim.csv,READVersionA.csv,"Read Mixed A","Read Mixed A",ARTERY,BRONZE,Study1,U,74,17,STUDY,8,8,,Study/JOL,"Study Phase",8001,,,-1,-1,,,,1
M20311420,m97ai8juwa,Nick_Dissertation_EX2_EP_MSU_TEXAS,1,11,2022-11-18T02:21:24+00:00,8.3723239898682,1,Mixed_Stim.csv,READVersionA.csv,"Read Mixed A","Read Mixed A",DEBATE,SIGHT,Study1,U,73,30,STUDY,8,8,,Study/JOL,"Study Phase",8001,,,-1,-1,,,,1
M20311420,m97ai8juwa,Nick_Dissertation_EX2_EP_MSU_TEXAS,1,12,2022-11-18T02:21:33+00:00,8.3856420516968,1,Mixed_Stim.csv,READVersionA.csv,"Read Mixed A","Read Mixed A",PARK,HUNGRY,Study1,U,68,11,STUDY,8,8,,Study/JOL,"Study Phase",8002,,,-1,-1,,,,1
M20311420,m97ai8juwa,Nick_Dissertation_EX2_EP_MSU_TEXAS,1,13,2022-11-18T02:21:41+00:00,8.3865599632263,1,Mixed_Stim.csv,READVersionA.csv,"Read Mixed A","Read Mixed A",TUNA,FISH,Study1,F,25,18,STUDY,8,8,,Study/JOL,"Study Phase",8001,,,-1,-1,,,,1
M20311420,m97ai8juwa,Nick_Dissertation_EX2_EP_MSU_TEXAS,1,14,2022-11-18T02:21:49+00:00,8.3768730163574,1,Mixed_Stim.csv,READVersionA.csv,"Read Mixed A","Read Mixed A",CASH,WOULD,Study1,U,83,28,STUDY,8,8,,Study/JOL,"Study Phase",8003,,,-1,-1,,,,1
M20311420,m97ai8juwa,Nick_Dissertation_EX2_EP_MSU_TEXAS,1,15,2022-11-18T02:21:58+00:00,8.4290730953217,1,Mixed_Stim.csv,READVersionA.csv,"Read Mixed A","Read Mixed A",SWAN,BIRD,Study1,F,14,25,STUDY,8,8,,Study/JOL,"Study Phase",8001,,,-1,-1,,,,1
M20311420,m97ai8juwa,Nick_Dissertation_EX2_EP_MSU_TEXAS,1,16,2022-11-18T02:22:06+00:00,8.381824016571,1,Mixed_Stim.csv,READVersionA.csv,"Read Mixed A","Read Mixed A",PUSHER,CLUTTER,Study1,U,66,41,STUDY,8,8,,Study/JOL,"Study Phase",8002,,,-1,-1,,,,1
M20311420,m97ai8juwa,Nick_Dissertation_EX2_EP_MSU_TEXAS,1,17,2022-11-18T02:22:15+00:00,8.3638319969177,1,Mixed_Stim.csv,READVersionA.csv,"Read Mixed A","Read Mixed A",EDITOR,NEWS,Study1,F,10,19,STUDY,8,8,,Study/JOL,"Study Phase",8001,,,-1,-1,,,,1
M20311420,m97ai8juwa,Nick_Dissertation_EX2_EP_MSU_TEXAS,1,18,2022-11-18T02:22:23+00:00,8.4057610034943,1,Mixed_Stim.csv,READVersionA.csv,"Read Mixed A","Read Mixed A",LIFT,WOMAN,Study1,U,69,15,STUDY,8,8,,Study/JOL,"Study Phase",8002,,,-1,-1,,,,1
M20311420,m97ai8juwa,Nick_Dissertation_EX2_EP_MSU_TEXAS,1,19,2022-11-18T02:22:31+00:00,8.3767628669739,1,Mixed_Stim.csv,READVersionA.csv,"Read Mixed A","Read Mixed A",ROOT,PLANT,Study1,F,13,16,STUDY,8,8,,Study/JOL,"Study Phase",8001,,,-1,-1,,,,1
M20311420,m97ai8juwa,Nick_Dissertation_EX2_EP_MSU_TEXAS,1,20,2022-11-18T02:22:40+00:00,8.4428470134735,1,Mixed_Stim.csv,READVersionA.csv,"Read Mixed A","Read Mixed A",PAW,DOG,Study1,F,15,10,STUDY,8,8,,Study/JOL,"Study Phase",8002,,,-1,-1,,,,1
M20311420,m97ai8juwa,Nick_Dissertation_EX2_EP_MSU_TEXAS,1,21,2022-11-18T02:22:48+00:00,8.3762500286102,1,Mixed_Stim.csv,READVersionA.csv,"Read Mixed A","Read Mixed A",BRIDGE,WATER,Study1,F,18,24,STUDY,8,8,,Study/JOL,"Study Phase",8001,,,-1,-1,,,,1
M20311420,m97ai8juwa,Nick_Dissertation_EX2_EP_MSU_TEXAS,1,22,2022-11-18T02:22:57+00:00,8.3777940273285,1,Mixed_Stim.csv,READVersionA.csv,"Read Mixed A","Read Mixed A",HIDE,SICK,Study1,U,84,35,STUDY,8,8,,Study/JOL,"Study Phase",8001,,,-1,-1,,,,1
M20311420,m97ai8juwa,Nick_Dissertation_EX2_EP_MSU_TEXAS,1,23,2022-11-18T02:23:05+00:00,8.3735148906708,1,Mixed_Stim.csv,READVersionA.csv,"Read Mixed A","Read Mixed A",WAGE,MONEY,Study1,F,8,36,STUDY,8,8,,Study/JOL,"Study Phase",8002,,,-1,-1,,,,1
M20311420,m97ai8juwa,Nick_Dissertation_EX2_EP_MSU_TEXAS,1,24,2022-11-18T02:23:13+00:00,8.3735890388489,1,Mixed_Stim.csv,READVersionA.csv,"Read Mixed A","Read Mixed A",FIX,HAND,Study1,U,75,37,STUDY,8,8,,Study/JOL,"Study Phase",8001,,,-1,-1,,,,1
M20311420,m97ai8juwa,Nick_Dissertation_EX2_EP_MSU_TEXAS,1,25,2022-11-18T02:23:22+00:00,8.4783251285553,1,Mixed_Stim.csv,READVersionA.csv,"Read Mixed A","Read Mixed A",SUGAR,RIDDLE,Study1,U,81,27,STUDY,8,8,,Study/JOL,"Study Phase",8001,,,1727,1727,,,,1
M20311420,m97ai8juwa,Nick_Dissertation_EX2_EP_MSU_TEXAS,1,26,2022-11-18T02:23:30+00:00,8.3921120166779,1,Mixed_Stim.csv,READVersionA.csv,"Read Mixed A","Read Mixed A",CREDIT,CARD,Study1,F,23,29,STUDY,8,8,,Study/JOL,"Study Phase",8002,,,-1,-1,,,,1
M20311420,m97ai8juwa,Nick_Dissertation_EX2_EP_MSU_TEXAS,1,27,2022-11-18T02:23:39+00:00,8.467658996582,1,Mixed_Stim.csv,READVersionA.csv,"Read Mixed A","Read Mixed A",SOON,BELT,Study1,U,70,32,STUDY,8,8,,Study/JOL,"Study Phase",8002,,,-1,-1,,,,1
M20311420,m97ai8juwa,Nick_Dissertation_EX2_EP_MSU_TEXAS,1,28,2022-11-18T02:23:47+00:00,8.3691349029541,1,Mixed_Stim.csv,READVersionA.csv,"Read Mixed A","Read Mixed A",DIETARY,SACKING,Study1,U,67,34,STUDY,8,8,,Study/JOL,"Study Phase",8001,,,-1,-1,,,,1
M20311420,m97ai8juwa,Nick_Dissertation_EX2_EP_MSU_TEXAS,1,29,2022-11-18T02:23:55+00:00,8.3867108821869,1,Mixed_Stim.csv,READVersionA.csv,"Read Mixed A","Read Mixed A",HAPPY,CAR,Study1,U,77,20,STUDY,8,8,,Study/JOL,"Study Phase",8001,,,-1,-1,,,,1
M20311420,m97ai8juwa,Nick_Dissertation_EX2_EP_MSU_TEXAS,1,30,2022-11-18T02:24:04+00:00,8.3768711090088,1,Mixed_Stim.csv,READVersionA.csv,"Read Mixed A","Read Mixed A",CHISEL,HAMMER,Study1,F,9,33,STUDY,8,8,,Study/JOL,"Study Phase",8001,,,-1,-1,,,,1
M20311420,m97ai8juwa,Nick_Dissertation_EX2_EP_MSU_TEXAS,1,31,2022-11-18T02:24:12+00:00,8.3925640583038,1,Mixed_Stim.csv,READVersionA.csv,"Read Mixed A","Read Mixed A",DIGESTION,STOMACH,Study1,F,7,43,STUDY,8,8,,Study/JOL,"Study Phase",8002,,,-1,-1,,,,1
M20311420,m97ai8juwa,Nick_Dissertation_EX2_EP_MSU_TEXAS,1,32,2022-11-18T02:24:21+00:00,8.4685709476471,1,Mixed_Stim.csv,READVersionA.csv,"Read Mixed A","Read Mixed A",GEOLOGY,ROCK,Study1,F,19,14,STUDY,8,8,,Study/JOL,"Study Phase",8002,,,-1,-1,,,,1
M20311420,m97ai8juwa,Nick_Dissertation_EX2_EP_MSU_TEXAS,1,33,2022-11-18T02:24:29+00:00,8.3970880508423,1,Mixed_Stim.csv,READVersionA.csv,"Read Mixed A","Read Mixed A",VALLEY,ADD,Study1,U,82,39,STUDY,8,8,,Study/JOL,"Study Phase",8001,,,-1,-1,,,,1
M20311420,m97ai8juwa,Nick_Dissertation_EX2_EP_MSU_TEXAS,1,34,2022-11-18T02:24:37+00:00,8.3871350288391,1,Mixed_Stim.csv,READVersionA.csv,"Read Mixed A","Read Mixed A",ORCHID,FLOWER,Study1,F,24,26,STUDY,8,8,,Study/JOL,"Study Phase",8001,,,-1,-1,,,,1
M20311420,m97ai8juwa,Nick_Dissertation_EX2_EP_MSU_TEXAS,1,35,2022-11-18T02:24:46+00:00,8.4163060188293,1,Mixed_Stim.csv,READVersionA.csv,"Read Mixed A","Read Mixed A",STRONG,ACCIDENT,Study1,U,80,38,STUDY,8,8,,Study/JOL,"Study Phase",8002,,,-1,-1,,,,1
M20311420,m97ai8juwa,Nick_Dissertation_EX2_EP_MSU_TEXAS,1,36,2022-11-18T02:24:54+00:00,8.3970658779144,1,Mixed_Stim.csv,READVersionA.csv,"Read Mixed A","Read Mixed A",HYGIENE,CLEAN,Study1,F,17,8,STUDY,8,8,,Study/JOL,"Study Phase",8001,,,-1,-1,,,,1
M20311420,m97ai8juwa,Nick_Dissertation_EX2_EP_MSU_TEXAS,1,37,2022-11-18T02:25:03+00:00,8.3746221065521,1,Mixed_Stim.csv,READVersionA.csv,"Read Mixed A","Read Mixed A",KING,VASE,Study1,U,85,23,STUDY,8,8,,Study/JOL,"Study Phase",8002,,,-1,-1,,,,1
M20311420,m97ai8juwa,Nick_Dissertation_EX2_EP_MSU_TEXAS,1,38,2022-11-18T02:25:11+00:00,8.3814740180969,1,Mixed_Stim.csv,READVersionA.csv,"Read Mixed A","Read Mixed A",REVOLUTION,WAR,Study1,F,20,40,STUDY,8,8,,Study/JOL,"Study Phase",8003,,,-1,-1,,,,1
M20311420,m97ai8juwa,Nick_Dissertation_EX2_EP_MSU_TEXAS,1,39,2022-11-18T02:25:19+00:00,8.3901968002319,1,Mixed_Stim.csv,READVersionA.csv,"Read Mixed A","Read Mixed A",DELINQUENT,BAD,Study1,F,6,31,STUDY,8,8,,Study/JOL,"Study Phase",8002,,,-1,-1,,,,1
M20311420,m97ai8juwa,Nick_Dissertation_EX2_EP_MSU_TEXAS,1,40,2022-11-18T02:25:28+00:00,8.3819680213928,1,Mixed_Stim.csv,READVersionA.csv,"Read Mixed A","Read Mixed A",ART,LION,Study1,U,79,21,STUDY,8,8,,Study/JOL,"Study Phase",8002,,,-1,-1,,,,1
M20311420,m97ai8juwa,Nick_Dissertation_EX2_EP_MSU_TEXAS,1,41,2022-11-18T02:25:36+00:00,8.3790590763092,1,Mixed_Stim.csv,READVersionA.csv,"Read Mixed A","Read Mixed A",BITTER,COLD,Study1,F,12,22,STUDY,8,8,,Study/JOL,"Study Phase",8002,,,1601,1601,,,,1
M20311420,m97ai8juwa,Nick_Dissertation_EX2_EP_MSU_TEXAS,1,42,2022-11-18T02:25:45+00:00,8.3854880332947,1,Mixed_Stim.csv,READVersionA.csv,"Read Mixed A","Read Mixed A",DEATH,BUSINESS,Study1,U,72,42,STUDY,8,8,,Study/JOL,"Study Phase",8001,,,-1,-1,,,,1
M20311420,m97ai8juwa,Nick_Dissertation_EX2_EP_MSU_TEXAS,1,43,2022-11-18T02:25:53+00:00,8.3805758953094,1,Mixed_Stim.csv,READVersionA.csv,"Read Mixed A","Read Mixed A",ALLOW,TUCK,Study1,U,78,46,STUDY,8,8,,Study/JOL,"Study Phase",8002,,,-1,-1,,,,1
M20311420,m97ai8juwa,Nick_Dissertation_EX2_EP_MSU_TEXAS,1,44,2022-11-18T02:26:01+00:00,8.4867970943451,1,Mixed_Stim.csv,READVersionA.csv,"Read Mixed A","Read Mixed A",DISCUSSION,TALK,Study1,F,21,9,STUDY,8,8,,Study/JOL,"Study Phase",8001,,,-1,-1,,,,1
M20311420,m97ai8juwa,Nick_Dissertation_EX2_EP_MSU_TEXAS,1,45,2022-11-18T02:26:10+00:00,8.442489862442,1,Mixed_Stim.csv,READVersionA.csv,"Read Mixed A","Read Mixed A",DISCOVER,FLOOR,Study1,U,71,12,STUDY,8,8,,Study/JOL,"Study Phase",8002,,,-1,-1,,,,1
M20311420,m97ai8juwa,Nick_Dissertation_EX2_EP_MSU_TEXAS,1,46,2022-11-18T02:26:18+00:00,8.3769791126251,1,Mixed_Stim.csv,READVersionA.csv,"Read Mixed A","Read Mixed A",HERD,COW,Study1,F,22,44,STUDY,8,8,,Study/JOL,"Study Phase",8003,,,-1,-1,,,,1
M20311420,m97ai8juwa,Nick_Dissertation_EX2_EP_MSU_TEXAS,1,47,2022-11-18T02:26:27+00:00,8.3911759853363,1,Mixed_Stim.csv,READVersionA.csv,"Read Mixed A","Read Mixed A",GEESE,GOOSE,BUFFER2,Buffer,86,48,STUDY,8,8,,Study/JOL,BUFFER2,8001,,,-1,-1,,,,1
M20311420,m97ai8juwa,Nick_Dissertation_EX2_EP_MSU_TEXAS,1,48,2022-11-18T02:26:35+00:00,8.3730990886688,1,Mixed_Stim.csv,READVersionA.csv,"Read Mixed A","Read Mixed A",SHERRIF,POLICE,BUFFER2,Buffer,87,51,STUDY,8,8,,Study/JOL,BUFFER2,8002,,,-1,-1,,,,1
M20311420,m97ai8juwa,Nick_Dissertation_EX2_EP_MSU_TEXAS,1,49,2022-11-18T02:26:44+00:00,8.4512388706207,1,Mixed_Stim.csv,READVersionA.csv,"Read Mixed A","Read Mixed A",THING,STUFF,BUFFER2,Buffer,90,47,STUDY,8,8,,Study/JOL,BUFFER2,8002,,,-1,-1,,,,1
M20311420,m97ai8juwa,Nick_Dissertation_EX2_EP_MSU_TEXAS,1,50,2022-11-18T02:26:52+00:00,8.3906309604645,1,Mixed_Stim.csv,READVersionA.csv,"Read Mixed A","Read Mixed A",MALT,CHOCOLATE,BUFFER2,Buffer,88,49,STUDY,8,8,,Study/JOL,BUFFER2,8002,,,-1,-1,,,,1
M20311420,m97ai8juwa,Nick_Dissertation_EX2_EP_MSU_TEXAS,1,51,2022-11-18T02:27:00+00:00,8.3825540542603,1,Mixed_Stim.csv,READVersionA.csv,"Read Mixed A","Read Mixed A",MOON,SPACE,BUFFER2,Buffer,89,50,STUDY,8,8,,Study/JOL,BUFFER2,8002,,,-1,-1,,,,1
M20311420,m97ai8juwa,Nick_Dissertation_EX2_EP_MSU_TEXAS,1,52,2022-11-18T02:27:03+00:00,2.7880680561066,1,Mixed_Stim.csv,READVersionA.csv,"Read Mixed A","Read Mixed A",,,,,,0,Instruct,User,-,"You have completed this section. Please press Enter.",Filler_Instruction,Instruct2,2573,,,-1,-1,,,,1
M20311420,m97ai8juwa,Nick_Dissertation_EX2_EP_MSU_TEXAS,1,53,2022-11-18T02:29:04+00:00,120.44752907753,1,Mixed_Stim.csv,READVersionA.csv,"Read Mixed A","Read Mixed A",,,,,,0,FreeRecall,120,120,"Please list the 50 US states in alphabetical order. The task will automatically advance to the next screen after two minutes.",,Filler1,120002,"Alabama, Alaska, Arizona, Arkansa,California, Colorado, Connecicut, Delaware Florida Georgia Hawaii Idado Illinois Indiana Iowa Kansa Kentucky Lousiana Maine Maryland Massachusetts Michigan Minnesota Missippii Missouri Montana Nebraska Nevada New Hampshier New Jersey New Mexico New York North Carolina North Da",0,7153,119823,0,0,,1
M20311420,m97ai8juwa,Nick_Dissertation_EX2_EP_MSU_TEXAS,1,54,2022-11-18T02:29:32+00:00,28.198012828827,1,Mixed_Stim.csv,READVersionA.csv,"Read Mixed A","Read Mixed A",,,,,,0,Instruct,-,10,"You will now be presented with the first word from each of the previously studied item pairs. Please type the missing word. If you do not know the word, you may guess or press Enter to skip forward to the next pair.",,Instruct3,27816,,,-1,-1,,,,1
M20311420,m97ai8juwa,Nick_Dissertation_EX2_EP_MSU_TEXAS,1,55,2022-11-18T02:29:39+00:00,7.5595681667328,1,Mixed_Stim.csv,READVersionA.csv,"Read Mixed A","Read Mixed A",PARK,HUNGRY,Study1,U,68,11,Test,User,-,,Recall,Recall1,7184,ranger,50,4807,6464,0,0,,1
M20311420,m97ai8juwa,Nick_Dissertation_EX2_EP_MSU_TEXAS,1,56,2022-11-18T02:29:45+00:00,5.7249119281769,1,Mixed_Stim.csv,READVersionA.csv,"Read Mixed A","Read Mixed A",VALLEY,ADD,Study1,U,82,39,Test,User,-,,Recall,Recall1,5351,summit,0,2069,4850,0,0,,1
M20311420,m97ai8juwa,Nick_Dissertation_EX2_EP_MSU_TEXAS,1,57,2022-11-18T02:29:48+00:00,2.6401100158691,1,Mixed_Stim.csv,READVersionA.csv,"Read Mixed A","Read Mixed A",REVOLUTION,WAR,Study1,F,20,40,Test,User,-,,Recall,Recall1,2401,war,100,1358,1917,1,1,,1
M20311420,m97ai8juwa,Nick_Dissertation_EX2_EP_MSU_TEXAS,1,58,2022-11-18T02:29:57+00:00,9.534548997879,1,Mixed_Stim.csv,READVersionA.csv,"Read Mixed A","Read Mixed A",DEATH,BUSINESS,Study1,U,72,42,Test,User,-,,Recall,Recall1,9167,die,36.363636363636,7929,8527,0,0,,1
M20311420,m97ai8juwa,Nick_Dissertation_EX2_EP_MSU_TEXAS,1,59,2022-11-18T02:30:01+00:00,3.5912990570068,1,Mixed_Stim.csv,READVersionA.csv,"Read Mixed A","Read Mixed A",HORNET,STING,Study1,F,11,45,Test,User,-,,Recall,Recall1,3375,sting,100,1688,2883,1,1,,1
M20311420,m97ai8juwa,Nick_Dissertation_EX2_EP_MSU_TEXAS,1,60,2022-11-18T02:30:04+00:00,3.6620399951935,1,Mixed_Stim.csv,READVersionA.csv,"Read Mixed A","Read Mixed A",CHISEL,HAMMER,Study1,F,9,33,Test,User,-,,Recall,Recall1,3447,hammer,100,1254,2938,1,1,,1
M20311420,m97ai8juwa,Nick_Dissertation_EX2_EP_MSU_TEXAS,1,61,2022-11-18T02:30:10+00:00,5.6337478160858,1,Mixed_Stim.csv,READVersionA.csv,"Read Mixed A","Read Mixed A",ARTERY,BRONZE,Study1,U,74,17,Test,User,-,,Recall,Recall1,5270,bronze,100,1750,4747,1,1,,1
M20311420,m97ai8juwa,Nick_Dissertation_EX2_EP_MSU_TEXAS,1,62,2022-11-18T02:30:15+00:00,5.0737540721893,1,Mixed_Stim.csv,READVersionA.csv,"Read Mixed A","Read Mixed A",SOON,BELT,Study1,U,70,32,Test,User,-,,Recall,Recall1,4697,idk,0,3110,4131,0,0,,1
M20311420,m97ai8juwa,Nick_Dissertation_EX2_EP_MSU_TEXAS,1,63,2022-11-18T02:30:22+00:00,6.6605370044708,1,Mixed_Stim.csv,READVersionA.csv,"Read Mixed A","Read Mixed A",ORCHID,FLOWER,Study1,F,24,26,Test,User,-,,Recall,Recall1,6239,petal,18.181818181818,2112,5812,0,0,,1
M20311420,m97ai8juwa,Nick_Dissertation_EX2_EP_MSU_TEXAS,1,64,2022-11-18T02:30:31+00:00,9.0084130764008,1,Mixed_Stim.csv,READVersionA.csv,"Read Mixed A","Read Mixed A",CASH,WOULD,Study1,U,83,28,Test,User,-,,Recall,Recall1,8638,when,22.222222222222,1417,8171,0,0,,1
M20311420,m97ai8juwa,Nick_Dissertation_EX2_EP_MSU_TEXAS,1,65,2022-11-18T02:30:34+00:00,3.3386318683624,1,Mixed_Stim.csv,READVersionA.csv,"Read Mixed A","Read Mixed A",DISCOVER,FLOOR,Study1,U,71,12,Test,User,-,,Recall,Recall1,3119,card,22.222222222222,1577,2677,0,0,,1
M20311420,m97ai8juwa,Nick_Dissertation_EX2_EP_MSU_TEXAS,1,66,2022-11-18T02:30:40+00:00,6.0719871520996,1,Mixed_Stim.csv,READVersionA.csv,"Read Mixed A","Read Mixed A",HYGIENE,CLEAN,Study1,F,17,8,Test,User,-,,Recall,Recall1,5707,dental,36.363636363636,3115,5322,0,0,,1
M20311420,m97ai8juwa,Nick_Dissertation_EX2_EP_MSU_TEXAS,1,67,2022-11-18T02:30:45+00:00,5.2775738239288,1,Mixed_Stim.csv,READVersionA.csv,"Read Mixed A","Read Mixed A",LIFT,WOMAN,Study1,U,69,15,Test,User,-,,Recall,Recall1,4910,women,80,2673,4333,0,1,,1
M20311420,m97ai8juwa,Nick_Dissertation_EX2_EP_MSU_TEXAS,1,68,2022-11-18T02:30:49+00:00,3.9864671230316,1,Mixed_Stim.csv,READVersionA.csv,"Read Mixed A","Read Mixed A",SUGAR,RIDDLE,Study1,U,81,27,Test,User,-,,Recall,Recall1,3758,spice,36.363636363636,1508,3286,0,0,,1
M20311420,m97ai8juwa,Nick_Dissertation_EX2_EP_MSU_TEXAS,1,69,2022-11-18T02:30:55+00:00,5.7233099937439,1,Mixed_Stim.csv,READVersionA.csv,"Read Mixed A","Read Mixed A",DIGESTION,STOMACH,Study1,F,7,43,Test,User,-,,Recall,Recall1,5338,stomach,100,2547,4808,1,1,,1
M20311420,m97ai8juwa,Nick_Dissertation_EX2_EP_MSU_TEXAS,1,70,2022-11-18T02:30:58+00:00,3.2964370250702,1,Mixed_Stim.csv,READVersionA.csv,"Read Mixed A","Read Mixed A",BITTER,COLD,Study1,F,12,22,Test,User,-,,Recall,Recall1,3080,sour,25,1428,2600,0,0,,1
M20311420,m97ai8juwa,Nick_Dissertation_EX2_EP_MSU_TEXAS,1,71,2022-11-18T02:31:02+00:00,3.2103679180145,1,Mixed_Stim.csv,READVersionA.csv,"Read Mixed A","Read Mixed A",BRIDGE,WATER,Study1,F,18,24,Test,User,-,,Recall,Recall1,2993,fall,22.222222222222,1622,2633,0,0,,1
M20311420,m97ai8juwa,Nick_Dissertation_EX2_EP_MSU_TEXAS,1,72,2022-11-18T02:31:12+00:00,10.20366692543,1,Mixed_Stim.csv,READVersionA.csv,"Read Mixed A","Read Mixed A",EDITOR,NEWS,Study1,F,10,19,Test,User,-,,Recall,Recall1,9828,journal,18.181818181818,2574,8443,0,0,,1
M20311420,m97ai8juwa,Nick_Dissertation_EX2_EP_MSU_TEXAS,1,73,2022-11-18T02:31:15+00:00,2.9162940979004,1,Mixed_Stim.csv,READVersionA.csv,"Read Mixed A","Read Mixed A",PAW,DOG,Study1,F,15,10,Test,User,-,,Recall,Recall1,2692,dog,100,1522,2270,1,1,,1
M20311420,m97ai8juwa,Nick_Dissertation_EX2_EP_MSU_TEXAS,1,74,2022-11-18T02:31:18+00:00,3.1514220237732,1,Mixed_Stim.csv,READVersionA.csv,"Read Mixed A","Read Mixed A",WAY,OUT,Study1,F,16,13,Test,User,-,,Recall,Recall1,2821,one,33.333333333333,1546,2294,0,0,,1
M20311420,m97ai8juwa,Nick_Dissertation_EX2_EP_MSU_TEXAS,1,75,2022-11-18T02:31:24+00:00,6.1105070114136,1,Mixed_Stim.csv,READVersionA.csv,"Read Mixed A","Read Mixed A",PUSHER,CLUTTER,Study1,U,66,41,Test,User,-,,Recall,Recall1,5727,shover,30.769230769231,3201,5297,0,0,,1
M20311420,m97ai8juwa,Nick_Dissertation_EX2_EP_MSU_TEXAS,1,76,2022-11-18T02:31:27+00:00,2.8993849754333,1,Mixed_Stim.csv,READVersionA.csv,"Read Mixed A","Read Mixed A",KING,VASE,Study1,U,85,23,Test,User,-,,Recall,Recall1,2681,vase,100,1477,2236,1,1,,1
M20311420,m97ai8juwa,Nick_Dissertation_EX2_EP_MSU_TEXAS,1,77,2022-11-18T02:31:33+00:00,5.699520111084,1,Mixed_Stim.csv,READVersionA.csv,"Read Mixed A","Read Mixed A",FIX,HAND,Study1,U,75,37,Test,User,-,,Recall,Recall1,5212,upper,0,2100,4618,0,0,,1
M20311420,m97ai8juwa,Nick_Dissertation_EX2_EP_MSU_TEXAS,1,78,2022-11-18T02:31:36+00:00,2.977187871933,1,Mixed_Stim.csv,READVersionA.csv,"Read Mixed A","Read Mixed A",DELINQUENT,BAD,Study1,F,6,31,Test,User,-,,Recall,Recall1,2759,bad,100,1665,2315,1,1,,1
M20311420,m97ai8juwa,Nick_Dissertation_EX2_EP_MSU_TEXAS,1,79,2022-11-18T02:31:42+00:00,6.6130080223083,1,Mixed_Stim.csv,READVersionA.csv,"Read Mixed A","Read Mixed A",DEBATE,SIGHT,Study1,U,73,30,Test,User,-,,Recall,Recall1,6192,hear,22.222222222222,1433,5542,0,0,,1
M20311420,m97ai8juwa,Nick_Dissertation_EX2_EP_MSU_TEXAS,1,80,2022-11-18T02:31:47+00:00,4.6570858955383,1,Mixed_Stim.csv,READVersionA.csv,"Read Mixed A","Read Mixed A",HIDE,SICK,Study1,U,84,35,Test,User,-,,Recall,Recall1,4275,seek,50,2521,3554,0,0,,1
M20311420,m97ai8juwa,Nick_Dissertation_EX2_EP_MSU_TEXAS,1,81,2022-11-18T02:31:50+00:00,3.4207470417023,1,Mixed_Stim.csv,READVersionA.csv,"Read Mixed A","Read Mixed A",DISCUSSION,TALK,Study1,F,21,9,Test,User,-,,Recall,Recall1,3208,talk,100,1482,2842,1,1,,1
M20311420,m97ai8juwa,Nick_Dissertation_EX2_EP_MSU_TEXAS,1,82,2022-11-18T02:31:55+00:00,4.3528780937195,1,Mixed_Stim.csv,READVersionA.csv,"Read Mixed A","Read Mixed A",ROOT,PLANT,Study1,F,13,16,Test,User,-,,Recall,Recall1,3986,canal,40,1798,3524,0,0,,1
M20311420,m97ai8juwa,Nick_Dissertation_EX2_EP_MSU_TEXAS,1,83,2022-11-18T02:32:01+00:00,5.8537268638611,1,Mixed_Stim.csv,READVersionA.csv,"Read Mixed A","Read Mixed A",STRONG,ACCIDENT,Study1,U,80,38,Test,User,-,,Recall,Recall1,5481,women,30.769230769231,3385,4990,0,0,,1
M20311420,m97ai8juwa,Nick_Dissertation_EX2_EP_MSU_TEXAS,1,84,2022-11-18T02:32:04+00:00,3.362065076828,1,Mixed_Stim.csv,READVersionA.csv,"Read Mixed A","Read Mixed A",SWAN,BIRD,Study1,F,14,25,Test,User,-,,Recall,Recall1,3139,song,0,1703,2718,0,0,,1
M20311420,m97ai8juwa,Nick_Dissertation_EX2_EP_MSU_TEXAS,1,85,2022-11-18T02:32:54+00:00,50.318598031998,1,Mixed_Stim.csv,READVersionA.csv,"Read Mixed A","Read Mixed A",DIETARY,SACKING,Study1,U,67,34,Test,User,-,,Recall,Recall1,49936,indegestionb,31.578947368421,46835,49576,0,0,,1
M20311420,m97ai8juwa,Nick_Dissertation_EX2_EP_MSU_TEXAS,1,86,2022-11-18T02:32:59+00:00,4.5984148979187,1,Mixed_Stim.csv,READVersionA.csv,"Read Mixed A","Read Mixed A",ALLOW,TUCK,Study1,U,78,46,Test,User,-,,Recall,Recall1,4189,metal,22.222222222222,2077,3803,0,0,,1
M20311420,m97ai8juwa,Nick_Dissertation_EX2_EP_MSU_TEXAS,1,87,2022-11-18T02:33:03+00:00,3.7855191230774,1,Mixed_Stim.csv,READVersionA.csv,"Read Mixed A","Read Mixed A",GEOLOGY,ROCK,Study1,F,19,14,Test,User,-,,Recall,Recall1,3560,rocks',80,1675,3540,0,1,,1
M20311420,m97ai8juwa,Nick_Dissertation_EX2_EP_MSU_TEXAS,1,88,2022-11-18T02:33:06+00:00,3.3520860671997,1,Mixed_Stim.csv,READVersionA.csv,"Read Mixed A","Read Mixed A",HERD,COW,Study1,F,22,44,Test,User,-,,Recall,Recall1,3124,cow,100,1891,2618,1,1,,1
M20311420,m97ai8juwa,Nick_Dissertation_EX2_EP_MSU_TEXAS,1,89,2022-11-18T02:33:10+00:00,3.9103219509125,1,Mixed_Stim.csv,READVersionA.csv,"Read Mixed A","Read Mixed A",WAGE,MONEY,Study1,F,8,36,Test,User,-,,Recall,Recall1,3692,money,100,1823,3140,1,1,,1
M20311420,m97ai8juwa,Nick_Dissertation_EX2_EP_MSU_TEXAS,1,90,2022-11-18T02:33:16+00:00,6.4801850318909,1,Mixed_Stim.csv,READVersionA.csv,"Read Mixed A","Read Mixed A",CREDIT,CARD,Study1,F,23,29,Test,User,-,,Recall,Recall1,5919,card,100,4825,5472,1,1,,1
M20311420,m97ai8juwa,Nick_Dissertation_EX2_EP_MSU_TEXAS,1,91,2022-11-18T02:33:24+00:00,7.8232119083405,1,Mixed_Stim.csv,READVersionA.csv,"Read Mixed A","Read Mixed A",MACHINE,POSITION,Study1,U,76,7,Test,User,-,,Recall,Recall1,7423,position,100,4208,6911,1,1,,1
M20311420,m97ai8juwa,Nick_Dissertation_EX2_EP_MSU_TEXAS,1,92,2022-11-18T02:33:32+00:00,7.5100979804993,1,Mixed_Stim.csv,READVersionA.csv,"Read Mixed A","Read Mixed A",HAPPY,CAR,Study1,U,77,20,Test,User,-,,Recall,Recall1,7120,dog,0,3196,6837,0,0,,1
M20311420,m97ai8juwa,Nick_Dissertation_EX2_EP_MSU_TEXAS,1,93,2022-11-18T02:33:37+00:00,5.2295291423798,1,Mixed_Stim.csv,READVersionA.csv,"Read Mixed A","Read Mixed A",ART,LION,Study1,U,79,21,Test,User,-,,Recall,Recall1,4843,king,50,3725,4607,0,0,,1
M20311420,m97ai8juwa,Nick_Dissertation_EX2_EP_MSU_TEXAS,1,94,2022-11-18T02:33:39+00:00,2.4167649745941,1,Mixed_Stim.csv,READVersionA.csv,"Read Mixed A","Read Mixed A",TUNA,FISH,Study1,F,25,18,Test,User,-,,Recall,Recall1,2196,fish,100,1146,1797,1,1,,1
M20311420,m97ai8juwa,Nick_Dissertation_EX2_EP_MSU_TEXAS,1,95,2022-11-18T02:33:50+00:00,11.088022947311,1,Mixed_Stim.csv,READVersionA.csv,"Read Mixed A","Read Mixed A",,,,,,0,Instruct,-,10,"You will now be presented with a new set of word pairs. Please study each pair. Remember that your memory will be tested! Each pair will be displayed on the computer screen and will automatically advance to the next pair. Press ENTER when you are ready to begin.",Initial_Instruct,Instruct4,10639,,,10506,10506,,,,1
M20311420,m97ai8juwa,Nick_Dissertation_EX2_EP_MSU_TEXAS,1,96,2022-11-18T02:33:59+00:00,8.3679540157318,1,Mixed_Stim.csv,READVersionA.csv,"Read Mixed A","Read Mixed A",ICE,FROZEN,BUFFER3,Buffer,94,52,STUDY,8,8,,Study/JOL,BUFFER3,8001,,,-1,-1,,,,1
M20311420,m97ai8juwa,Nick_Dissertation_EX2_EP_MSU_TEXAS,1,97,2022-11-18T02:34:07+00:00,8.384449005127,1,Mixed_Stim.csv,READVersionA.csv,"Read Mixed A","Read Mixed A",NOODLE,STRING,BUFFER3,Buffer,92,53,STUDY,8,8,,Study/JOL,BUFFER3,8002,,,-1,-1,,,,1
M20311420,m97ai8juwa,Nick_Dissertation_EX2_EP_MSU_TEXAS,1,98,2022-11-18T02:34:16+00:00,8.366749048233,1,Mixed_Stim.csv,READVersionA.csv,"Read Mixed A","Read Mixed A",SHRIMP,FISH,BUFFER3,Buffer,93,56,STUDY,8,8,,Study/JOL,BUFFER3,8002,,,-1,-1,,,,1
M20311420,m97ai8juwa,Nick_Dissertation_EX2_EP_MSU_TEXAS,1,99,2022-11-18T02:34:24+00:00,8.3768429756165,1,Mixed_Stim.csv,READVersionA.csv,"Read Mixed A","Read Mixed A",CARROT,POTATO,BUFFER3,Buffer,91,55,STUDY,8,8,,Study/JOL,BUFFER3,8006,,,-1,-1,,,,1
M20311420,m97ai8juwa,Nick_Dissertation_EX2_EP_MSU_TEXAS,1,100,2022-11-18T02:34:32+00:00,8.3907918930054,1,Mixed_Stim.csv,READVersionA.csv,"Read Mixed A","Read Mixed A",CAMP,ADVENTURE,BUFFER3,Buffer,95,54,STUDY,8,8,,Study/JOL,BUFFER3,8003,,,-1,-1,,,,1
M20311420,m97ai8juwa,Nick_Dissertation_EX2_EP_MSU_TEXAS,1,101,2022-11-18T02:34:41+00:00,8.4246850013733,1,Mixed_Stim.csv,READVersionA.csv,"Read Mixed A","Read Mixed A",SHEARS,SCISSORS,Study2,F,112,91,STUDY,8,8,,Study/JOL,"Study Phase2",8002,,,-1,-1,,,,1
M20311420,m97ai8juwa,Nick_Dissertation_EX2_EP_MSU_TEXAS,1,102,2022-11-18T02:34:49+00:00,8.4022669792175,1,Mixed_Stim.csv,READVersionA.csv,"Read Mixed A","Read Mixed A",TEMPERATURE,Morning,Study2,U,173,64,STUDY,8,8,,Study/JOL,"Study Phase2",8002,,,-1,-1,,,,1
M20311420,m97ai8juwa,Nick_Dissertation_EX2_EP_MSU_TEXAS,1,103,2022-11-18T02:34:58+00:00,8.3825371265411,1,Mixed_Stim.csv,READVersionA.csv,"Read Mixed A","Read Mixed A",VEHICLE,CHARM,Study2,U,160,60,STUDY,8,8,,Study/JOL,"Study Phase2",8001,,,-1,-1,,,,1
M20311420,m97ai8juwa,Nick_Dissertation_EX2_EP_MSU_TEXAS,1,104,2022-11-18T02:35:06+00:00,8.393070936203,1,Mixed_Stim.csv,READVersionA.csv,"Read Mixed A","Read Mixed A",SCALP,HEAD,Study2,F,105,86,STUDY,8,8,,Study/JOL,"Study Phase2",8002,,,-1,-1,,,,1
M20311420,m97ai8juwa,Nick_Dissertation_EX2_EP_MSU_TEXAS,1,105,2022-11-18T02:35:14+00:00,8.3999118804932,1,Mixed_Stim.csv,READVersionA.csv,"Read Mixed A","Read Mixed A",MAIN,SCAR,Study2,U,175,89,STUDY,8,8,,Study/JOL,"Study Phase2",8002,,,-1,-1,,,,1
M20311420,m97ai8juwa,Nick_Dissertation_EX2_EP_MSU_TEXAS,1,106,2022-11-18T02:35:23+00:00,8.3936340808868,1,Mixed_Stim.csv,READVersionA.csv,"Read Mixed A","Read Mixed A",ADJOURN,END,Study2,F,101,77,STUDY,8,8,,Study/JOL,"Study Phase2",8002,,,-1,-1,,,,1
M20311420,m97ai8juwa,Nick_Dissertation_EX2_EP_MSU_TEXAS,1,107,2022-11-18T02:35:31+00:00,8.5310850143433,1,Mixed_Stim.csv,READVersionA.csv,"Read Mixed A","Read Mixed A",KEYS,JOKE,Study2,U,165,68,STUDY,8,8,,Study/JOL,"Study Phase2",8001,,,-1,-1,,,,1
M20311420,m97ai8juwa,Nick_Dissertation_EX2_EP_MSU_TEXAS,1,108,2022-11-18T02:35:40+00:00,8.3780229091644,1,Mixed_Stim.csv,READVersionA.csv,"Read Mixed A","Read Mixed A",FUZZY,BANG,Study2,U,168,94,STUDY,8,8,,Study/JOL,"Study Phase2",8002,,,-1,-1,,,,1
M20311420,m97ai8juwa,Nick_Dissertation_EX2_EP_MSU_TEXAS,1,109,2022-11-18T02:35:48+00:00,8.3877511024475,1,Mixed_Stim.csv,READVersionA.csv,"Read Mixed A","Read Mixed A",CAKE,CLOTHES,Study2,U,166,59,STUDY,8,8,,Study/JOL,"Study Phase2",8002,,,-1,-1,,,,1
M20311420,m97ai8juwa,Nick_Dissertation_EX2_EP_MSU_TEXAS,1,110,2022-11-18T02:35:56+00:00,8.4003729820251,1,Mixed_Stim.csv,READVersionA.csv,"Read Mixed A","Read Mixed A",CHERRY,RED,Study2,F,104,61,STUDY,8,8,,Study/JOL,"Study Phase2",8001,,,-1,-1,,,,1
M20311420,m97ai8juwa,Nick_Dissertation_EX2_EP_MSU_TEXAS,1,111,2022-11-18T02:36:05+00:00,8.4428610801697,1,Mixed_Stim.csv,READVersionA.csv,"Read Mixed A","Read Mixed A",CHILL,COLD,Study2,F,114,75,STUDY,8,8,,Study/JOL,"Study Phase2",8002,,,-1,-1,,,,1
M20311420,m97ai8juwa,Nick_Dissertation_EX2_EP_MSU_TEXAS,1,112,2022-11-18T02:36:13+00:00,8.3845658302307,1,Mixed_Stim.csv,READVersionA.csv,"Read Mixed A","Read Mixed A",KING,VASE,Study1,U,85,23,STUDY,8,8,,Study/JOL,"Study Phase2",8001,,,-1,-1,,,,1
M20311420,m97ai8juwa,Nick_Dissertation_EX2_EP_MSU_TEXAS,1,113,2022-11-18T02:36:22+00:00,8.3826241493225,1,Mixed_Stim.csv,READVersionA.csv,"Read Mixed A","Read Mixed A",DETECTIVE,MYSTERY,Study2,F,100,79,STUDY,8,8,,Study/JOL,"Study Phase2",8001,,,-1,-1,,,,1
M20311420,m97ai8juwa,Nick_Dissertation_EX2_EP_MSU_TEXAS,1,114,2022-11-18T02:36:30+00:00,8.3713729381561,1,Mixed_Stim.csv,READVersionA.csv,"Read Mixed A","Read Mixed A",MULE,DONKEY,Study2,F,108,67,STUDY,8,8,,Study/JOL,"Study Phase2",8001,,,-1,-1,,,,1
M20311420,m97ai8juwa,Nick_Dissertation_EX2_EP_MSU_TEXAS,1,115,2022-11-18T02:36:38+00:00,8.390928030014,1,Mixed_Stim.csv,READVersionA.csv,"Read Mixed A","Read Mixed A",DOCUMENT,PAPER,Study2,F,109,87,STUDY,8,8,,Study/JOL,"Study Phase2",8002,,,-1,-1,,,,1
M20311420,m97ai8juwa,Nick_Dissertation_EX2_EP_MSU_TEXAS,1,116,2022-11-18T02:36:47+00:00,8.3890979290009,1,Mixed_Stim.csv,READVersionA.csv,"Read Mixed A","Read Mixed A",FEUD,FIGHT,Study2,F,113,71,STUDY,8,8,,Study/JOL,"Study Phase2",8002,,,-1,-1,,,,1
M20311420,m97ai8juwa,Nick_Dissertation_EX2_EP_MSU_TEXAS,1,117,2022-11-18T02:36:55+00:00,8.3809449672699,1,Mixed_Stim.csv,READVersionA.csv,"Read Mixed A","Read Mixed A",SHOELACE,TIE,Study2,F,99,85,STUDY,8,8,,Study/JOL,"Study Phase2",8002,,,-1,-1,,,,1
M20311420,m97ai8juwa,Nick_Dissertation_EX2_EP_MSU_TEXAS,1,118,2022-11-18T02:37:04+00:00,8.6766550540924,1,Mixed_Stim.csv,READVersionA.csv,"Read Mixed A","Read Mixed A",LEASE,TOIL,Study2,U,170,73,STUDY,8,8,,Study/JOL,"Study Phase2",8002,,,-1,-1,,,,1
M20311420,m97ai8juwa,Nick_Dissertation_EX2_EP_MSU_TEXAS,1,119,2022-11-18T02:37:12+00:00,8.4336049556732,1,Mixed_Stim.csv,READVersionA.csv,"Read Mixed A","Read Mixed A",EXTENSION,LONG,Study2,F,96,92,STUDY,8,8,,Study/JOL,"Study Phase2",8003,,,-1,-1,,,,1
M20311420,m97ai8juwa,Nick_Dissertation_EX2_EP_MSU_TEXAS,1,120,2022-11-18T02:37:21+00:00,8.4705300331116,1,Mixed_Stim.csv,READVersionA.csv,"Read Mixed A","Read Mixed A",NAME,HATE,Study2,U,167,93,STUDY,8,8,,Study/JOL,"Study Phase2",8002,,,-1,-1,,,,1
M20311420,m97ai8juwa,Nick_Dissertation_EX2_EP_MSU_TEXAS,1,121,2022-11-18T02:37:29+00:00,8.4185900688171,1,Mixed_Stim.csv,READVersionA.csv,"Read Mixed A","Read Mixed A",CRACKLE,ABLE,Study2,U,162,62,STUDY,8,8,,Study/JOL,"Study Phase2",8002,,,-1,-1,,,,1
M20311420,m97ai8juwa,Nick_Dissertation_EX2_EP_MSU_TEXAS,1,122,2022-11-18T02:37:38+00:00,8.3766539096832,1,Mixed_Stim.csv,READVersionA.csv,"Read Mixed A","Read Mixed A",BOTH,OUNCE,Study2,U,172,76,STUDY,8,8,,Study/JOL,"Study Phase2",8002,,,-1,-1,,,,1
M20311420,m97ai8juwa,Nick_Dissertation_EX2_EP_MSU_TEXAS,1,123,2022-11-18T02:37:46+00:00,8.3926429748535,1,Mixed_Stim.csv,READVersionA.csv,"Read Mixed A","Read Mixed A",INCENSE,SMELL,Study2,F,110,81,STUDY,8,8,,Study/JOL,"Study Phase2",8002,,,-1,-1,,,,1
M20311420,m97ai8juwa,Nick_Dissertation_EX2_EP_MSU_TEXAS,1,124,2022-11-18T02:37:54+00:00,8.3848400115967,1,Mixed_Stim.csv,READVersionA.csv,"Read Mixed A","Read Mixed A",CLUE,GAME,Study2,F,97,80,STUDY,8,8,,Study/JOL,"Study Phase2",8002,,,-1,-1,,,,1
M20311420,m97ai8juwa,Nick_Dissertation_EX2_EP_MSU_TEXAS,1,125,2022-11-18T02:38:03+00:00,8.3776791095734,1,Mixed_Stim.csv,READVersionA.csv,"Read Mixed A","Read Mixed A",FURRY,DOG,Study2,F,102,65,STUDY,8,8,,Study/JOL,"Study Phase2",8002,,,-1,-1,,,,1
M20311420,m97ai8juwa,Nick_Dissertation_EX2_EP_MSU_TEXAS,1,126,2022-11-18T02:38:11+00:00,8.3952949047089,1,Mixed_Stim.csv,READVersionA.csv,"Read Mixed A","Read Mixed A",LOAN,SIGN,Study2,U,171,74,STUDY,8,8,,Study/JOL,"Study Phase2",8002,,,-1,-1,,,,1
M20311420,m97ai8juwa,Nick_Dissertation_EX2_EP_MSU_TEXAS,1,127,2022-11-18T02:38:19+00:00,8.3857560157776,1,Mixed_Stim.csv,READVersionA.csv,"Read Mixed A","Read Mixed A",GIVE,STEAK,Study2,U,158,66,STUDY,8,8,,Study/JOL,"Study Phase2",8002,,,-1,-1,,,,1
M20311420,m97ai8juwa,Nick_Dissertation_EX2_EP_MSU_TEXAS,1,128,2022-11-18T02:38:28+00:00,8.3869659900665,1,Mixed_Stim.csv,READVersionA.csv,"Read Mixed A","Read Mixed A",MEAT,OBTAIN,Study2,U,161,72,STUDY,8,8,,Study/JOL,"Study Phase2",8003,,,-1,-1,,,,1
M20311420,m97ai8juwa,Nick_Dissertation_EX2_EP_MSU_TEXAS,1,129,2022-11-18T02:38:36+00:00,8.3955841064453,1,Mixed_Stim.csv,READVersionA.csv,"Read Mixed A","Read Mixed A",CAKE,CLOTHES,Study2,U,166,59,STUDY,8,8,,Study/JOL,"Study Phase2",8001,,,-1,-1,,,,1
M20311420,m97ai8juwa,Nick_Dissertation_EX2_EP_MSU_TEXAS,1,130,2022-11-18T02:38:45+00:00,8.40123295784,1,Mixed_Stim.csv,READVersionA.csv,"Read Mixed A","Read Mixed A",LITTER,TRASH,Study2,F,103,78,STUDY,8,8,,Study/JOL,"Study Phase2",8002,,,-1,-1,,,,1
M20311420,m97ai8juwa,Nick_Dissertation_EX2_EP_MSU_TEXAS,1,131,2022-11-18T02:38:53+00:00,8.4223759174347,1,Mixed_Stim.csv,READVersionA.csv,"Read Mixed A","Read Mixed A",CHOP,CUT,Study2,F,107,90,STUDY,8,8,,Study/JOL,"Study Phase2",8002,,,-1,-1,,,,1
M20311420,m97ai8juwa,Nick_Dissertation_EX2_EP_MSU_TEXAS,1,132,2022-11-18T02:39:01+00:00,8.3758001327515,1,Mixed_Stim.csv,READVersionA.csv,"Read Mixed A","Read Mixed A",CACTUS,PLANT,Study2,F,98,63,STUDY,8,8,,Study/JOL,"Study Phase2",8002,,,-1,-1,,,,1
M20311420,m97ai8juwa,Nick_Dissertation_EX2_EP_MSU_TEXAS,1,133,2022-11-18T02:39:10+00:00,8.3779940605164,1,Mixed_Stim.csv,READVersionA.csv,"Read Mixed A","Read Mixed A",STRETCH,CLOTH,Study2,U,157,88,STUDY,8,8,,Study/JOL,"Study Phase2",8002,,,-1,-1,,,,1
M20311420,m97ai8juwa,Nick_Dissertation_EX2_EP_MSU_TEXAS,1,134,2022-11-18T02:39:18+00:00,8.3911128044128,1,Mixed_Stim.csv,READVersionA.csv,"Read Mixed A","Read Mixed A",DRIVER,CAR,Study2,F,106,96,STUDY,8,8,,Study/JOL,"Study Phase2",8002,,,-1,-1,,,,1
M20311420,m97ai8juwa,Nick_Dissertation_EX2_EP_MSU_TEXAS,1,135,2022-11-18T02:39:27+00:00,8.3917460441589,1,Mixed_Stim.csv,READVersionA.csv,"Read Mixed A","Read Mixed A",AFFECTION,LOVE,Study2,F,115,82,STUDY,8,8,,Study/JOL,"Study Phase2",8001,,,-1,-1,,,,1
M20311420,m97ai8juwa,Nick_Dissertation_EX2_EP_MSU_TEXAS,1,136,2022-11-18T02:39:35+00:00,8.3804731369019,1,Mixed_Stim.csv,READVersionA.csv,"Read Mixed A","Read Mixed A",LISTEN,FICTION,Study2,U,164,84,STUDY,8,8,,Study/JOL,"Study Phase2",8001,,,-1,-1,,,,1
M20311420,m97ai8juwa,Nick_Dissertation_EX2_EP_MSU_TEXAS,1,137,2022-11-18T02:39:43+00:00,8.3758428096771,1,Mixed_Stim.csv,READVersionA.csv,"Read Mixed A","Read Mixed A",JUSTICE,MAROON,Study2,U,156,57,STUDY,8,8,,Study/JOL,"Study Phase2",8002,,,-1,-1,,,,1
M20311420,m97ai8juwa,Nick_Dissertation_EX2_EP_MSU_TEXAS,1,138,2022-11-18T02:39:52+00:00,8.3818380832672,1,Mixed_Stim.csv,READVersionA.csv,"Read Mixed A","Read Mixed A",MOAT,CLEAR,Study2,U,169,69,STUDY,8,8,,Study/JOL,"Study Phase2",8003,,,-1,-1,,,,1
M20311420,m97ai8juwa,Nick_Dissertation_EX2_EP_MSU_TEXAS,1,139,2022-11-18T02:40:00+00:00,8.3854529857635,1,Mixed_Stim.csv,READVersionA.csv,"Read Mixed A","Read Mixed A",MAZE,ELECTION,Study2,U,159,70,STUDY,8,8,,Study/JOL,"Study Phase2",8001,,,-1,-1,,,,1
M20311420,m97ai8juwa,Nick_Dissertation_EX2_EP_MSU_TEXAS,1,140,2022-11-18T02:40:09+00:00,8.3919010162354,1,Mixed_Stim.csv,READVersionA.csv,"Read Mixed A","Read Mixed A",DINE,EAT,Study2,F,111,95,STUDY,8,8,,Study/JOL,"Study Phase2",8001,,,-1,-1,,,,1
M20311420,m97ai8juwa,Nick_Dissertation_EX2_EP_MSU_TEXAS,1,141,2022-11-18T02:40:17+00:00,8.4509000778198,1,Mixed_Stim.csv,READVersionA.csv,"Read Mixed A","Read Mixed A",OCTOBER,SPOOKY,BUFFER4,Buffer,180,101,STUDY,8,8,,Study/JOL,BUFFER4,8002,,,-1,-1,,,,1
M20311420,m97ai8juwa,Nick_Dissertation_EX2_EP_MSU_TEXAS,1,142,2022-11-18T02:40:25+00:00,8.3956928253174,1,Mixed_Stim.csv,READVersionA.csv,"Read Mixed A","Read Mixed A",SPRING,MARCH,BUFFER4,Buffer,179,97,STUDY,8,8,,Study/JOL,BUFFER4,8003,,,-1,-1,,,,1
M20311420,m97ai8juwa,Nick_Dissertation_EX2_EP_MSU_TEXAS,1,143,2022-11-18T02:40:34+00:00,8.3890500068665,1,Mixed_Stim.csv,READVersionA.csv,"Read Mixed A","Read Mixed A",MONTH,YEAR,BUFFER4,Buffer,177,100,STUDY,8,8,,Study/JOL,BUFFER4,8003,,,-1,-1,,,,1
M20311420,m97ai8juwa,Nick_Dissertation_EX2_EP_MSU_TEXAS,1,144,2022-11-18T02:40:42+00:00,8.3906631469727,1,Mixed_Stim.csv,READVersionA.csv,"Read Mixed A","Read Mixed A",TOOL,SHED,BUFFER4,Buffer,178,98,STUDY,8,8,,Study/JOL,BUFFER4,8002,,,-1,-1,,,,1
M20311420,m97ai8juwa,Nick_Dissertation_EX2_EP_MSU_TEXAS,1,145,2022-11-18T02:40:51+00:00,8.4253568649292,1,Mixed_Stim.csv,READVersionA.csv,"Read Mixed A","Read Mixed A",DAYS,WEAKS,BUFFER4,Buffer,176,99,STUDY,8,8,,Study/JOL,BUFFER4,8001,,,-1,-1,,,,1
M20311420,m97ai8juwa,Nick_Dissertation_EX2_EP_MSU_TEXAS,1,146,2022-11-18T02:40:53+00:00,2.667708158493,1,Mixed_Stim.csv,READVersionA.csv,"Read Mixed A","Read Mixed A",,,,,,0,Instruct,User,-,"You have completed this section. Please press Enter.",Filler_Instruction,Instruct5,2442,,,-1,-1,,,,1
M20311420,m97ai8juwa,Nick_Dissertation_EX2_EP_MSU_TEXAS,1,147,2022-11-18T02:42:54+00:00,120.4336438179,1,Mixed_Stim.csv,READVersionA.csv,"Read Mixed A","Read Mixed A",,,,,,0,FreeRecall,120,120,"Please list the 50 US states in reverse alphabetical order (z - a). The task will automatically advance to the next screen after two minutes.",,Filler2,120002,"Wyoming, Wisconsin, West Virginia, Washington, Virgina, Vermont, Utah, Texas, Tennessee, South Dakota, Rhode Island, Pennsylvania, Oregon , ",0,9646,118733,0,0,,1
M20311420,m97ai8juwa,Nick_Dissertation_EX2_EP_MSU_TEXAS,1,148,2022-11-18T02:43:05+00:00,11.433332204819,1,Mixed_Stim.csv,READVersionA.csv,"Read Mixed A","Read Mixed A",,,,,,0,Instruct,-,10,"You will now be presented with the first word from each of the previously studied item pairs. Please type the missing word. If you do not know the word, you may guess or press Enter to skip forward to the next pair.",,Instruct6,11064,,,309,4095,,,,1
M20311420,m97ai8juwa,Nick_Dissertation_EX2_EP_MSU_TEXAS,1,149,2022-11-18T02:43:12+00:00,7.32865691185,1,Mixed_Stim.csv,READVersionA.csv,"Read Mixed A","Read Mixed A",NAME,HATE,Study2,U,167,93,Test,User,-,,Recall,Recall2,6903,keep,25,5820,6477,0,0,,1
M20311420,m97ai8juwa,Nick_Dissertation_EX2_EP_MSU_TEXAS,1,150,2022-11-18T02:43:18+00:00,5.4556310176849,1,Mixed_Stim.csv,READVersionA.csv,"Read Mixed A","Read Mixed A",CAKE,CLOTHES,Study2,U,166,59,Test,User,-,,Recall,Recall2,5049,clothes,100,3471,4733,1,1,,1
M20311420,m97ai8juwa,Nick_Dissertation_EX2_EP_MSU_TEXAS,1,151,2022-11-18T02:43:20+00:00,2.5901820659637,1,Mixed_Stim.csv,READVersionA.csv,"Read Mixed A","Read Mixed A",CACTUS,PLANT,Study2,F,98,63,Test,User,-,,Recall,Recall2,2366,plant,100,1256,2077,1,1,,1
M20311420,m97ai8juwa,Nick_Dissertation_EX2_EP_MSU_TEXAS,1,152,2022-11-18T02:43:26+00:00,5.4370379447937,1,Mixed_Stim.csv,READVersionA.csv,"Read Mixed A","Read Mixed A",GIVE,STEAK,Study2,U,158,66,Test,User,-,,Recall,Recall2,5035,steak,100,1329,4516,1,1,,1
M20311420,m97ai8juwa,Nick_Dissertation_EX2_EP_MSU_TEXAS,1,153,2022-11-18T02:43:32+00:00,5.66907787323,1,Mixed_Stim.csv,READVersionA.csv,"Read Mixed A","Read Mixed A",DETECTIVE,MYSTERY,Study2,F,100,79,Test,User,-,,Recall,Recall2,5295,search,46.153846153846,2448,4065,0,0,,1
M20311420,m97ai8juwa,Nick_Dissertation_EX2_EP_MSU_TEXAS,1,154,2022-11-18T02:43:34+00:00,2.4084670543671,1,Mixed_Stim.csv,READVersionA.csv,"Read Mixed A","Read Mixed A",KING,VASE,Study1,U,85,23,Test,User,-,,Recall,Recall2,2184,vase,100,1205,1867,1,1,,1
M20311420,m97ai8juwa,Nick_Dissertation_EX2_EP_MSU_TEXAS,1,155,2022-11-18T02:43:39+00:00,5.2690091133118,1,Mixed_Stim.csv,READVersionA.csv,"Read Mixed A","Read Mixed A",CHERRY,RED,Study2,F,104,61,Test,User,-,,Recall,Recall2,4899,"on top",0,2161,4153,0,0,,1
M20311420,m97ai8juwa,Nick_Dissertation_EX2_EP_MSU_TEXAS,1,156,2022-11-18T02:43:45+00:00,5.9095878601074,1,Mixed_Stim.csv,READVersionA.csv,"Read Mixed A","Read Mixed A",CAKE,CLOTHES,Study2,U,166,59,Test,User,-,,Recall,Recall2,5532,Bring,0,3970,5197,0,0,,1
M20311420,m97ai8juwa,Nick_Dissertation_EX2_EP_MSU_TEXAS,1,157,2022-11-18T02:43:51+00:00,5.7867970466614,1,Mixed_Stim.csv,READVersionA.csv,"Read Mixed A","Read Mixed A",SHEARS,SCISSORS,Study2,F,112,91,Test,User,-,,Recall,Recall2,5406,Cloth,30.769230769231,3979,4895,0,0,,1
M20311420,m97ai8juwa,Nick_Dissertation_EX2_EP_MSU_TEXAS,1,158,2022-11-18T02:43:54+00:00,3.1099169254303,1,Mixed_Stim.csv,READVersionA.csv,"Read Mixed A","Read Mixed A",LOAN,SIGN,Study2,U,171,74,Test,User,-,,Recall,Recall2,2874,Cash,25,1787,2394,0,0,,1
M20311420,m97ai8juwa,Nick_Dissertation_EX2_EP_MSU_TEXAS,1,159,2022-11-18T02:43:57+00:00,2.6737639904022,1,Mixed_Stim.csv,READVersionA.csv,"Read Mixed A","Read Mixed A",FUZZY,BANG,Study2,U,168,94,Test,User,-,,Recall,Recall2,2447,Dog,28.571428571429,1674,2090,0,0,,1
M20311420,m97ai8juwa,Nick_Dissertation_EX2_EP_MSU_TEXAS,1,160,2022-11-18T02:44:05+00:00,8.1726260185242,1,Mixed_Stim.csv,READVersionA.csv,"Read Mixed A","Read Mixed A",DOCUMENT,PAPER,Study2,F,109,87,Test,User,-,,Recall,Recall2,7779,Secret,36.363636363636,5702,7462,0,0,,1
M20311420,m97ai8juwa,Nick_Dissertation_EX2_EP_MSU_TEXAS,1,161,2022-11-18T02:44:10+00:00,5.4569411277771,1,Mixed_Stim.csv,READVersionA.csv,"Read Mixed A","Read Mixed A",CHILL,COLD,Study2,F,114,75,Test,User,-,,Recall,Recall2,5078,Frozen,20,2270,4634,0,0,,1
M20311420,m97ai8juwa,Nick_Dissertation_EX2_EP_MSU_TEXAS,1,162,2022-11-18T02:44:17+00:00,6.7223808765411,1,Mixed_Stim.csv,READVersionA.csv,"Read Mixed A","Read Mixed A",SHOELACE,TIE,Study2,F,99,85,Test,User,-,,Recall,Recall2,6298,idl,33.333333333333,5465,5902,0,0,,1
M20311420,m97ai8juwa,Nick_Dissertation_EX2_EP_MSU_TEXAS,1,163,2022-11-18T02:44:20+00:00,2.5148770809174,1,Mixed_Stim.csv,READVersionA.csv,"Read Mixed A","Read Mixed A",DINE,EAT,Study2,F,111,95,Test,User,-,,Recall,Recall2,2288,In,0,1400,1682,0,0,,1
M20311420,m97ai8juwa,Nick_Dissertation_EX2_EP_MSU_TEXAS,1,164,2022-11-18T02:44:24+00:00,4.05122590065,1,Mixed_Stim.csv,READVersionA.csv,"Read Mixed A","Read Mixed A",LEASE,TOIL,Study2,U,170,73,Test,User,-,,Recall,Recall2,3826,New,0,3022,3596,0,0,,1
M20311420,m97ai8juwa,Nick_Dissertation_EX2_EP_MSU_TEXAS,1,165,2022-11-18T02:44:27+00:00,3.3882031440735,1,Mixed_Stim.csv,READVersionA.csv,"Read Mixed A","Read Mixed A",INCENSE,SMELL,Study2,F,110,81,Test,User,-,,Recall,Recall2,3171,smell,100,1604,2926,1,1,,1
M20311420,m97ai8juwa,Nick_Dissertation_EX2_EP_MSU_TEXAS,1,166,2022-11-18T02:44:30+00:00,2.669469833374,1,Mixed_Stim.csv,READVersionA.csv,"Read Mixed A","Read Mixed A",EXTENSION,LONG,Study2,F,96,92,Test,User,-,,Recall,Recall2,2449,chord,22.222222222222,1407,2292,0,0,,1
M20311420,m97ai8juwa,Nick_Dissertation_EX2_EP_MSU_TEXAS,1,167,2022-11-18T02:44:36+00:00,5.7819981575012,1,Mixed_Stim.csv,READVersionA.csv,"Read Mixed A","Read Mixed A",KEYS,JOKE,Study2,U,165,68,Test,User,-,,Recall,Recall2,5415,jingle,40,1945,5237,0,0,,1
M20311420,m97ai8juwa,Nick_Dissertation_EX2_EP_MSU_TEXAS,1,168,2022-11-18T02:44:39+00:00,3.3511500358582,1,Mixed_Stim.csv,READVersionA.csv,"Read Mixed A","Read Mixed A",MULE,DONKEY,Study2,F,108,67,Test,User,-,,Recall,Recall2,3116,donkey,100,1368,2524,1,1,,1
M20311420,m97ai8juwa,Nick_Dissertation_EX2_EP_MSU_TEXAS,1,169,2022-11-18T02:44:41+00:00,2.4680619239807,1,Mixed_Stim.csv,READVersionA.csv,"Read Mixed A","Read Mixed A",FURRY,DOG,Study2,F,102,65,Test,User,-,,Recall,Recall2,2246,dog,100,1524,1903,1,1,,1
M20311420,m97ai8juwa,Nick_Dissertation_EX2_EP_MSU_TEXAS,1,170,2022-11-18T02:44:47+00:00,5.3993949890137,1,Mixed_Stim.csv,READVersionA.csv,"Read Mixed A","Read Mixed A",DRIVER,CAR,Study2,F,106,96,Test,User,-,,Recall,Recall2,5029,car,100,3115,4744,1,1,,1
M20311420,m97ai8juwa,Nick_Dissertation_EX2_EP_MSU_TEXAS,1,171,2022-11-18T02:44:50+00:00,2.9753329753876,1,Mixed_Stim.csv,READVersionA.csv,"Read Mixed A","Read Mixed A",LITTER,TRASH,Study2,F,103,78,Test,User,-,,Recall,Recall2,2737,box,0,1424,2577,0,0,,1
M20311420,m97ai8juwa,Nick_Dissertation_EX2_EP_MSU_TEXAS,1,172,2022-11-18T02:44:53+00:00,2.8677411079407,1,Mixed_Stim.csv,READVersionA.csv,"Read Mixed A","Read Mixed A",AFFECTION,LOVE,Study2,F,115,82,Test,User,-,,Recall,Recall2,2644,love,100,1394,2382,1,1,,1
M20311420,m97ai8juwa,Nick_Dissertation_EX2_EP_MSU_TEXAS,1,173,2022-11-18T02:44:56+00:00,3.1106889247894,1,Mixed_Stim.csv,READVersionA.csv,"Read Mixed A","Read Mixed A",JUSTICE,MAROON,Study2,U,156,57,Test,User,-,,Recall,Recall2,2886,peace,18.181818181818,1665,2717,0,0,,1
M20311420,m97ai8juwa,Nick_Dissertation_EX2_EP_MSU_TEXAS,1,174,2022-11-18T02:44:58+00:00,2.8124289512634,1,Mixed_Stim.csv,READVersionA.csv,"Read Mixed A","Read Mixed A",FEUD,FIGHT,Study2,F,113,71,Test,User,-,,Recall,Recall2,2595,mad,0,1914,2316,0,0,,1
M20311420,m97ai8juwa,Nick_Dissertation_EX2_EP_MSU_TEXAS,1,175,2022-11-18T02:45:01+00:00,2.2693600654602,1,Mixed_Stim.csv,READVersionA.csv,"Read Mixed A","Read Mixed A",CLUE,GAME,Study2,F,97,80,Test,User,-,,Recall,Recall2,2051,game,100,1367,1849,1,1,,1
M20311420,m97ai8juwa,Nick_Dissertation_EX2_EP_MSU_TEXAS,1,176,2022-11-18T02:45:04+00:00,2.8456120491028,1,Mixed_Stim.csv,READVersionA.csv,"Read Mixed A","Read Mixed A",SCALP,HEAD,Study2,F,105,86,Test,User,-,,Recall,Recall2,2612,head,100,1884,2424,1,1,,1
M20311420,m97ai8juwa,Nick_Dissertation_EX2_EP_MSU_TEXAS,1,177,2022-11-18T02:45:07+00:00,3.3967349529266,1,Mixed_Stim.csv,READVersionA.csv,"Read Mixed A","Read Mixed A",MAIN,SCAR,Study2,U,175,89,Test,User,-,,Recall,Recall2,3175,piece,22.222222222222,1958,3064,0,0,,1
M20311420,m97ai8juwa,Nick_Dissertation_EX2_EP_MSU_TEXAS,1,178,2022-11-18T02:45:10+00:00,3.3649139404297,1,Mixed_Stim.csv,READVersionA.csv,"Read Mixed A","Read Mixed A",LISTEN,FICTION,Study2,U,164,84,Test,User,-,,Recall,Recall2,3143,hear,0,1240,3065,0,0,,1
M20311420,m97ai8juwa,Nick_Dissertation_EX2_EP_MSU_TEXAS,1,179,2022-11-18T02:45:14+00:00,3.9714181423187,1,Mixed_Stim.csv,READVersionA.csv,"Read Mixed A","Read Mixed A",MOAT,CLEAR,Study2,U,169,69,Test,User,-,,Recall,Recall2,3752,water,40,2278,3486,0,0,,1
M20311420,m97ai8juwa,Nick_Dissertation_EX2_EP_MSU_TEXAS,1,180,2022-11-18T02:45:17+00:00,2.4017558097839,1,Mixed_Stim.csv,READVersionA.csv,"Read Mixed A","Read Mixed A",CRACKLE,ABLE,Study2,U,162,62,Test,User,-,,Recall,Recall2,2185,idk,0,1374,1857,0,0,,1
M20311420,m97ai8juwa,Nick_Dissertation_EX2_EP_MSU_TEXAS,1,181,2022-11-18T02:45:19+00:00,1.8325669765472,1,Mixed_Stim.csv,READVersionA.csv,"Read Mixed A","Read Mixed A",ADJOURN,END,Study2,F,101,77,Test,User,-,,Recall,Recall2,1609,idk,33.333333333333,1002,1289,0,0,,1
M20311420,m97ai8juwa,Nick_Dissertation_EX2_EP_MSU_TEXAS,1,182,2022-11-18T02:45:21+00:00,2.1404001712799,1,Mixed_Stim.csv,READVersionA.csv,"Read Mixed A","Read Mixed A",MEAT,OBTAIN,Study2,U,161,72,Test,User,-,,Recall,Recall2,1916,idk,22.222222222222,1387,1619,0,0,,1
M20311420,m97ai8juwa,Nick_Dissertation_EX2_EP_MSU_TEXAS,1,183,2022-11-18T02:45:23+00:00,1.9933619499207,1,Mixed_Stim.csv,READVersionA.csv,"Read Mixed A","Read Mixed A",VEHICLE,CHARM,Study2,U,160,60,Test,User,-,,Recall,Recall2,1767,car,75,1137,1662,0,1,,1
M20311420,m97ai8juwa,Nick_Dissertation_EX2_EP_MSU_TEXAS,1,184,2022-11-18T02:45:29+00:00,6.5482749938965,1,Mixed_Stim.csv,READVersionA.csv,"Read Mixed A","Read Mixed A",MAZE,ELECTION,Study2,U,159,70,Test,User,-,,Recall,Recall2,6028,election,100,2160,5692,1,1,,1
M20311420,m97ai8juwa,Nick_Dissertation_EX2_EP_MSU_TEXAS,1,185,2022-11-18T02:45:32+00:00,2.3336720466614,1,Mixed_Stim.csv,READVersionA.csv,"Read Mixed A","Read Mixed A",BOTH,OUNCE,Study2,U,172,76,Test,User,-,,Recall,Recall2,2090,sides,20,1324,1983,0,0,,1
M20311420,m97ai8juwa,Nick_Dissertation_EX2_EP_MSU_TEXAS,1,186,2022-11-18T02:45:36+00:00,4.4162938594818,1,Mixed_Stim.csv,READVersionA.csv,"Read Mixed A","Read Mixed A",CHOP,CUT,Study2,F,107,90,Test,User,-,,Recall,Recall2,4007,meat,28.571428571429,2485,3884,0,0,,1
M20311420,m97ai8juwa,Nick_Dissertation_EX2_EP_MSU_TEXAS,1,187,2022-11-18T02:45:39+00:00,2.9435231685638,1,Mixed_Stim.csv,READVersionA.csv,"Read Mixed A","Read Mixed A",TEMPERATURE,Morning,Study2,U,173,64,Test,User,-,,Recall,Recall2,2711,hot,20,1930,2457,0,0,,1
M20311420,m97ai8juwa,Nick_Dissertation_EX2_EP_MSU_TEXAS,1,188,2022-11-18T02:45:42+00:00,2.9614939689636,1,Mixed_Stim.csv,READVersionA.csv,"Read Mixed A","Read Mixed A",STRETCH,CLOTH,Study2,U,157,88,Test,User,-,,Recall,Recall2,2729,cloth,100,1742,2432,1,1,,1
M20311420,m97ai8juwa,Nick_Dissertation_EX2_EP_MSU_TEXAS,1,189,2022-11-18T02:45:44+00:00,2.1313960552216,1,Mixed_Stim.csv,READVersionA.csv,"Read Mixed A","Read Mixed A",,,,,,0,Instruct,User,-,"You have completed this section. Please press Enter.",,Instruct7,1913,,,-1,-1,,,,1
M20311420,m97ai8juwa,Nick_Dissertation_EX2_EP_MSU_TEXAS,1,190,2022-11-18T02:45:46+00:00,1.85307097435,1,Mixed_Stim.csv,READVersionA.csv,"Read Mixed A","Read Mixed A",,,,,,0,Instruct,User,-,"The following screen will ask you a few questions abour your experience today. You must complete these questions to receive credit.",,Instruct8,1569,,,-1,-1,,,,1
