Username,ID,ExperimentName,Session,Trial,Date,TimeDif,"Condition Number","Stimuli File","Order File","Condition Description","Condition Notes",Stimuli*Cue,Stimuli*Answer,Stimuli*Shuffle,"Stimuli*Stimuli Notes",Stimuli*Value,Procedure*Item,"Procedure*Trial Type","Procedure*Max Time","Procedure*Min Time",Procedure*Text,"Procedure*Procedure Notes",Procedure*Shuffle,Response*RT,Response*Response,Response*Accuracy,Response*RTfirst,Response*RTlast,Response*strictAcc,Response*lenientAcc,Response*focus,Response*Focus
m20301553,5gkch5i0g1,Nick_Dissertation_EX2_EP_MSU_TEXAS,1,1,2022-11-10T18:18:09+00:00,15.310974121094,5,Pure_Unrelated.csv,READVersionA.csv,"Read Pure U A","Read Pure U A",,,,,,0,Instruct,-,10,"Please study each of the following word pairs. Remember that your memory will be tested! Each pair will be displayed on the computer screen and will automatically advance to the next pair. Press ENTER when you are ready to begin.",Initial_Instruct,Instruct1,15166,,,-1,-1,,,,1
m20301553,5gkch5i0g1,Nick_Dissertation_EX2_EP_MSU_TEXAS,1,2,2022-11-10T18:18:17+00:00,8.2290890216827,5,Pure_Unrelated.csv,READVersionA.csv,"Read Pure U A","Read Pure U A",TREES,GREEN,BUFFER1,Buffer,1,6,STUDY,8,8,,Study/JOL,BUFFER,8010,,,-1,-1,,,,1
m20301553,5gkch5i0g1,Nick_Dissertation_EX2_EP_MSU_TEXAS,1,3,2022-11-10T18:18:25+00:00,8.2023730278015,5,Pure_Unrelated.csv,READVersionA.csv,"Read Pure U A","Read Pure U A",BASEBALL,CATCHER,BUFFER1,Buffer,2,3,STUDY,8,8,,Study/JOL,BUFFER,8002,,,-1,-1,,,,1
m20301553,5gkch5i0g1,Nick_Dissertation_EX2_EP_MSU_TEXAS,1,4,2022-11-10T18:18:33+00:00,8.2127540111542,5,Pure_Unrelated.csv,READVersionA.csv,"Read Pure U A","Read Pure U A",SCARE,HIDE,BUFFER1,Buffer,4,4,STUDY,8,8,,Study/JOL,BUFFER,8001,,,-1,-1,,,,1
m20301553,5gkch5i0g1,Nick_Dissertation_EX2_EP_MSU_TEXAS,1,5,2022-11-10T18:18:41+00:00,8.2113919258118,5,Pure_Unrelated.csv,READVersionA.csv,"Read Pure U A","Read Pure U A",SPACE,JAM,BUFFER1,Buffer,5,2,STUDY,8,8,,Study/JOL,BUFFER,8011,,,-1,-1,,,,1
m20301553,5gkch5i0g1,Nick_Dissertation_EX2_EP_MSU_TEXAS,1,6,2022-11-10T18:18:51+00:00,9.2950940132141,5,Pure_Unrelated.csv,READVersionA.csv,"Read Pure U A","Read Pure U A",PEANUT,BUTTER,BUFFER1,Buffer,3,5,STUDY,8,8,,Study/JOL,BUFFER,8002,,,-1,-1,,,,1
m20301553,5gkch5i0g1,Nick_Dissertation_EX2_EP_MSU_TEXAS,1,7,2022-11-10T18:18:59+00:00,8.3094110488892,5,Pure_Unrelated.csv,READVersionA.csv,"Read Pure U A","Read Pure U A",STRETCH,CLOTH,Study1,U,7,46,STUDY,8,8,,Study/JOL,"Study Phase",8008,,,-1,-1,,,,1
m20301553,5gkch5i0g1,Nick_Dissertation_EX2_EP_MSU_TEXAS,1,8,2022-11-10T18:19:07+00:00,8.217766046524,5,Pure_Unrelated.csv,READVersionA.csv,"Read Pure U A","Read Pure U A",DIFFICULT,POOR,Study1,U,81,20,STUDY,8,8,,Study/JOL,"Study Phase",8002,,,-1,-1,,,,1
m20301553,5gkch5i0g1,Nick_Dissertation_EX2_EP_MSU_TEXAS,1,9,2022-11-10T18:19:16+00:00,8.2133219242096,5,Pure_Unrelated.csv,READVersionA.csv,"Read Pure U A","Read Pure U A",BROAD,INFECT,Study1,U,75,36,STUDY,8,8,,Study/JOL,"Study Phase",8010,,,-1,-1,,,,1
m20301553,5gkch5i0g1,Nick_Dissertation_EX2_EP_MSU_TEXAS,1,10,2022-11-10T18:19:24+00:00,8.2033839225769,5,Pure_Unrelated.csv,READVersionA.csv,"Read Pure U A","Read Pure U A",NUMBER,HARD,Study1,U,78,7,STUDY,8,8,,Study/JOL,"Study Phase",8001,,,-1,-1,,,,1
m20301553,5gkch5i0g1,Nick_Dissertation_EX2_EP_MSU_TEXAS,1,11,2022-11-10T18:19:32+00:00,8.2178730964661,5,Pure_Unrelated.csv,READVersionA.csv,"Read Pure U A","Read Pure U A",MEAT,OBTAIN,Study1,U,11,9,STUDY,8,8,,Study/JOL,"Study Phase",8010,,,-1,-1,,,,1
m20301553,5gkch5i0g1,Nick_Dissertation_EX2_EP_MSU_TEXAS,1,12,2022-11-10T18:19:40+00:00,8.2029139995575,5,Pure_Unrelated.csv,READVersionA.csv,"Read Pure U A","Read Pure U A",WARN,SEA,Study1,U,80,37,STUDY,8,8,,Study/JOL,"Study Phase",8004,,,-1,-1,,,,1
m20301553,5gkch5i0g1,Nick_Dissertation_EX2_EP_MSU_TEXAS,1,13,2022-11-10T18:19:48+00:00,8.2037088871002,5,Pure_Unrelated.csv,READVersionA.csv,"Read Pure U A","Read Pure U A",DEGREE,CHAIR,Study1,U,71,13,STUDY,8,8,,Study/JOL,"Study Phase",8002,,,-1,-1,,,,1
m20301553,5gkch5i0g1,Nick_Dissertation_EX2_EP_MSU_TEXAS,1,14,2022-11-10T18:19:58+00:00,9.3668131828308,5,Pure_Unrelated.csv,READVersionA.csv,"Read Pure U A","Read Pure U A",DIZZY,SWEATER,Study1,U,77,39,STUDY,8,8,,Study/JOL,"Study Phase",8002,,,-1,-1,,,,1
m20301553,5gkch5i0g1,Nick_Dissertation_EX2_EP_MSU_TEXAS,1,15,2022-11-10T18:20:06+00:00,8.2109220027924,5,Pure_Unrelated.csv,READVersionA.csv,"Read Pure U A","Read Pure U A",PARCEL,THROAT,Study1,U,67,40,STUDY,8,8,,Study/JOL,"Study Phase",8001,,,-1,-1,,,,1
m20301553,5gkch5i0g1,Nick_Dissertation_EX2_EP_MSU_TEXAS,1,16,2022-11-10T18:20:14+00:00,8.2104167938232,5,Pure_Unrelated.csv,READVersionA.csv,"Read Pure U A","Read Pure U A",DONKEY,LUSH,Study1,U,84,26,STUDY,8,8,,Study/JOL,"Study Phase",8006,,,-1,-1,,,,1
m20301553,5gkch5i0g1,Nick_Dissertation_EX2_EP_MSU_TEXAS,1,17,2022-11-10T18:20:22+00:00,8.2151870727539,5,Pure_Unrelated.csv,READVersionA.csv,"Read Pure U A","Read Pure U A",MAIN,SCAR,Study1,U,25,15,STUDY,8,8,,Study/JOL,"Study Phase",8003,,,-1,-1,,,,1
m20301553,5gkch5i0g1,Nick_Dissertation_EX2_EP_MSU_TEXAS,1,18,2022-11-10T18:20:31+00:00,8.2034239768982,5,Pure_Unrelated.csv,READVersionA.csv,"Read Pure U A","Read Pure U A",CRAYON,RATE,Study1,U,79,33,STUDY,8,8,,Study/JOL,"Study Phase",8005,,,-1,-1,,,,1
m20301553,5gkch5i0g1,Nick_Dissertation_EX2_EP_MSU_TEXAS,1,19,2022-11-10T18:20:39+00:00,8.2016880512238,5,Pure_Unrelated.csv,READVersionA.csv,"Read Pure U A","Read Pure U A",GRIND,STAND,Study1,U,85,10,STUDY,8,8,,Study/JOL,"Study Phase",8003,,,-1,-1,,,,1
m20301553,5gkch5i0g1,Nick_Dissertation_EX2_EP_MSU_TEXAS,1,20,2022-11-10T18:20:47+00:00,8.2020189762115,5,Pure_Unrelated.csv,READVersionA.csv,"Read Pure U A","Read Pure U A",FUZZY,BANG,Study1,U,18,19,STUDY,8,8,,Study/JOL,"Study Phase",8005,,,-1,-1,,,,1
m20301553,5gkch5i0g1,Nick_Dissertation_EX2_EP_MSU_TEXAS,1,21,2022-11-10T18:20:55+00:00,8.2002010345459,5,Pure_Unrelated.csv,READVersionA.csv,"Read Pure U A","Read Pure U A",INFLATE,DISGUST,Study1,U,76,24,STUDY,8,8,,Study/JOL,"Study Phase",8002,,,-1,-1,,,,1
m20301553,5gkch5i0g1,Nick_Dissertation_EX2_EP_MSU_TEXAS,1,22,2022-11-10T18:21:03+00:00,8.2141680717468,5,Pure_Unrelated.csv,READVersionA.csv,"Read Pure U A","Read Pure U A",VEHICLE,CHARM,Study1,U,10,31,STUDY,8,8,,Study/JOL,"Study Phase",8005,,,-1,-1,,,,1
m20301553,5gkch5i0g1,Nick_Dissertation_EX2_EP_MSU_TEXAS,1,23,2022-11-10T18:21:12+00:00,8.2253229618073,5,Pure_Unrelated.csv,READVersionA.csv,"Read Pure U A","Read Pure U A",TAX,OWL,Study1,U,72,23,STUDY,8,8,,Study/JOL,"Study Phase",8007,,,-1,-1,,,,1
m20301553,5gkch5i0g1,Nick_Dissertation_EX2_EP_MSU_TEXAS,1,24,2022-11-10T18:21:20+00:00,8.2045729160309,5,Pure_Unrelated.csv,READVersionA.csv,"Read Pure U A","Read Pure U A",MAZE,ELECTION,Study1,U,9,22,STUDY,8,8,,Study/JOL,"Study Phase",8004,,,-1,-1,,,,1
m20301553,5gkch5i0g1,Nick_Dissertation_EX2_EP_MSU_TEXAS,1,25,2022-11-10T18:21:28+00:00,8.2171270847321,5,Pure_Unrelated.csv,READVersionA.csv,"Read Pure U A","Read Pure U A",RIPE,VERIFY,Study1,U,83,32,STUDY,8,8,,Study/JOL,"Study Phase",8005,,,-1,-1,,,,1
m20301553,5gkch5i0g1,Nick_Dissertation_EX2_EP_MSU_TEXAS,1,26,2022-11-10T18:21:36+00:00,8.2118909358978,5,Pure_Unrelated.csv,READVersionA.csv,"Read Pure U A","Read Pure U A",BAT,SHAKY,Study1,U,66,38,STUDY,8,8,,Study/JOL,"Study Phase",8004,,,-1,-1,,,,1
m20301553,5gkch5i0g1,Nick_Dissertation_EX2_EP_MSU_TEXAS,1,27,2022-11-10T18:21:44+00:00,8.2075560092926,5,Pure_Unrelated.csv,READVersionA.csv,"Read Pure U A","Read Pure U A",SHELL,SHAKE,Study1,U,13,34,STUDY,8,8,,Study/JOL,"Study Phase",8002,,,-1,-1,,,,1
m20301553,5gkch5i0g1,Nick_Dissertation_EX2_EP_MSU_TEXAS,1,28,2022-11-10T18:21:53+00:00,8.2110929489136,5,Pure_Unrelated.csv,READVersionA.csv,"Read Pure U A","Read Pure U A",THICK,CONTEST,Study1,U,73,21,STUDY,8,8,,Study/JOL,"Study Phase",8003,,,-1,-1,,,,1
m20301553,5gkch5i0g1,Nick_Dissertation_EX2_EP_MSU_TEXAS,1,29,2022-11-10T18:22:01+00:00,8.2080991268158,5,Pure_Unrelated.csv,READVersionA.csv,"Read Pure U A","Read Pure U A",MOAT,CLEAR,Study1,U,19,35,STUDY,8,8,,Study/JOL,"Study Phase",8003,,,-1,-1,,,,1
m20301553,5gkch5i0g1,Nick_Dissertation_EX2_EP_MSU_TEXAS,1,30,2022-11-10T18:22:09+00:00,8.2079520225525,5,Pure_Unrelated.csv,READVersionA.csv,"Read Pure U A","Read Pure U A",STRESS,YAM,Study1,U,68,8,STUDY,8,8,,Study/JOL,"Study Phase",8001,,,-1,-1,,,,1
m20301553,5gkch5i0g1,Nick_Dissertation_EX2_EP_MSU_TEXAS,1,31,2022-11-10T18:22:17+00:00,8.2239298820496,5,Pure_Unrelated.csv,READVersionA.csv,"Read Pure U A","Read Pure U A",NAME,HATE,Study1,U,17,45,STUDY,8,8,,Study/JOL,"Study Phase",8004,,,-1,-1,,,,1
m20301553,5gkch5i0g1,Nick_Dissertation_EX2_EP_MSU_TEXAS,1,32,2022-11-10T18:22:25+00:00,8.2158679962158,5,Pure_Unrelated.csv,READVersionA.csv,"Read Pure U A","Read Pure U A",ROSE,NEGLECT,Study1,U,82,25,STUDY,8,8,,Study/JOL,"Study Phase",8004,,,-1,-1,,,,1
m20301553,5gkch5i0g1,Nick_Dissertation_EX2_EP_MSU_TEXAS,1,33,2022-11-10T18:22:34+00:00,8.2097671031952,5,Pure_Unrelated.csv,READVersionA.csv,"Read Pure U A","Read Pure U A",LISTEN,FICTION,Study1,U,14,30,STUDY,8,8,,Study/JOL,"Study Phase",8004,,,-1,-1,,,,1
m20301553,5gkch5i0g1,Nick_Dissertation_EX2_EP_MSU_TEXAS,1,34,2022-11-10T18:22:42+00:00,8.2093598842621,5,Pure_Unrelated.csv,READVersionA.csv,"Read Pure U A","Read Pure U A",PET,MOON,Study1,U,74,14,STUDY,8,8,,Study/JOL,"Study Phase",8001,,,-1,-1,,,,1
m20301553,5gkch5i0g1,Nick_Dissertation_EX2_EP_MSU_TEXAS,1,35,2022-11-10T18:22:50+00:00,8.2154951095581,5,Pure_Unrelated.csv,READVersionA.csv,"Read Pure U A","Read Pure U A",FUTURE,SINCERE,Study1,U,70,18,STUDY,8,8,,Study/JOL,"Study Phase",8005,,,-1,-1,,,,1
m20301553,5gkch5i0g1,Nick_Dissertation_EX2_EP_MSU_TEXAS,1,36,2022-11-10T18:22:58+00:00,8.2157998085022,5,Pure_Unrelated.csv,READVersionA.csv,"Read Pure U A","Read Pure U A",JUSTICE,MAROON,Study1,U,6,28,STUDY,8,8,,Study/JOL,"Study Phase",8004,,,-1,-1,,,,1
m20301553,5gkch5i0g1,Nick_Dissertation_EX2_EP_MSU_TEXAS,1,37,2022-11-10T18:23:07+00:00,8.2066371440887,5,Pure_Unrelated.csv,READVersionA.csv,"Read Pure U A","Read Pure U A",KEYS,JOKE,Study1,U,15,16,STUDY,8,8,,Study/JOL,"Study Phase",8001,,,-1,-1,,,,1
m20301553,5gkch5i0g1,Nick_Dissertation_EX2_EP_MSU_TEXAS,1,38,2022-11-10T18:23:15+00:00,8.2048280239105,5,Pure_Unrelated.csv,READVersionA.csv,"Read Pure U A","Read Pure U A",GIVE,STEAK,Study1,U,8,29,STUDY,8,8,,Study/JOL,"Study Phase",8002,,,-1,-1,,,,1
m20301553,5gkch5i0g1,Nick_Dissertation_EX2_EP_MSU_TEXAS,1,39,2022-11-10T18:23:23+00:00,8.2028410434723,5,Pure_Unrelated.csv,READVersionA.csv,"Read Pure U A","Read Pure U A",CRACKLE,ABLE,Study1,U,12,43,STUDY,8,8,,Study/JOL,"Study Phase",8006,,,-1,-1,,,,1
m20301553,5gkch5i0g1,Nick_Dissertation_EX2_EP_MSU_TEXAS,1,40,2022-11-10T18:23:31+00:00,8.2000939846039,5,Pure_Unrelated.csv,READVersionA.csv,"Read Pure U A","Read Pure U A",LOAN,SIGN,Study1,U,21,12,STUDY,8,8,,Study/JOL,"Study Phase",8002,,,-1,-1,,,,1
m20301553,5gkch5i0g1,Nick_Dissertation_EX2_EP_MSU_TEXAS,1,41,2022-11-10T18:23:39+00:00,8.2074480056763,5,Pure_Unrelated.csv,READVersionA.csv,"Read Pure U A","Read Pure U A",RESIST,GLUE,Study1,U,69,27,STUDY,8,8,,Study/JOL,"Study Phase",8006,,,-1,-1,,,,1
m20301553,5gkch5i0g1,Nick_Dissertation_EX2_EP_MSU_TEXAS,1,42,2022-11-10T18:23:48+00:00,8.209704875946,5,Pure_Unrelated.csv,READVersionA.csv,"Read Pure U A","Read Pure U A",BOTH,OUNCE,Study1,U,22,41,STUDY,8,8,,Study/JOL,"Study Phase",8002,,,-1,-1,,,,1
m20301553,5gkch5i0g1,Nick_Dissertation_EX2_EP_MSU_TEXAS,1,43,2022-11-10T18:23:56+00:00,8.2121419906616,5,Pure_Unrelated.csv,READVersionA.csv,"Read Pure U A","Read Pure U A",TEMPERATURE,MORNING,Study1,U,23,17,STUDY,8,8,,Study/JOL,"Study Phase",8004,,,-1,-1,,,,1
m20301553,5gkch5i0g1,Nick_Dissertation_EX2_EP_MSU_TEXAS,1,44,2022-11-10T18:24:04+00:00,8.2110879421234,5,Pure_Unrelated.csv,READVersionA.csv,"Read Pure U A","Read Pure U A",LEASE,TOIL,Study1,U,20,42,STUDY,8,8,,Study/JOL,"Study Phase",8010,,,-1,-1,,,,1
m20301553,5gkch5i0g1,Nick_Dissertation_EX2_EP_MSU_TEXAS,1,45,2022-11-10T18:24:12+00:00,8.2170550823212,5,Pure_Unrelated.csv,READVersionA.csv,"Read Pure U A","Read Pure U A",MIRROR,CHILDREN,Study1,U,24,44,STUDY,8,8,,Study/JOL,"Study Phase",8002,,,-1,-1,,,,1
m20301553,5gkch5i0g1,Nick_Dissertation_EX2_EP_MSU_TEXAS,1,46,2022-11-10T18:24:20+00:00,8.2234969139099,5,Pure_Unrelated.csv,READVersionA.csv,"Read Pure U A","Read Pure U A",CAKE,CLOTHES,Study1,U,16,11,STUDY,8,8,,Study/JOL,"Study Phase",8003,,,-1,-1,,,,1
m20301553,5gkch5i0g1,Nick_Dissertation_EX2_EP_MSU_TEXAS,1,47,2022-11-10T18:24:29+00:00,8.2189102172852,5,Pure_Unrelated.csv,READVersionA.csv,"Read Pure U A","Read Pure U A",SHERRIF,POLICE,BUFFER2,Buffer,87,49,STUDY,8,8,,Study/JOL,BUFFER2,8003,,,-1,-1,,,,1
m20301553,5gkch5i0g1,Nick_Dissertation_EX2_EP_MSU_TEXAS,1,48,2022-11-10T18:24:37+00:00,8.2110948562622,5,Pure_Unrelated.csv,READVersionA.csv,"Read Pure U A","Read Pure U A",MALT,CHOCOLATE,BUFFER2,Buffer,88,48,STUDY,8,8,,Study/JOL,BUFFER2,8013,,,-1,-1,,,,1
m20301553,5gkch5i0g1,Nick_Dissertation_EX2_EP_MSU_TEXAS,1,49,2022-11-10T18:24:45+00:00,8.2099969387054,5,Pure_Unrelated.csv,READVersionA.csv,"Read Pure U A","Read Pure U A",THING,STUFF,BUFFER2,Buffer,90,50,STUDY,8,8,,Study/JOL,BUFFER2,8002,,,-1,-1,,,,1
m20301553,5gkch5i0g1,Nick_Dissertation_EX2_EP_MSU_TEXAS,1,50,2022-11-10T18:24:53+00:00,8.2174181938171,5,Pure_Unrelated.csv,READVersionA.csv,"Read Pure U A","Read Pure U A",MOON,SPACE,BUFFER2,Buffer,89,47,STUDY,8,8,,Study/JOL,BUFFER2,8004,,,-1,-1,,,,1
m20301553,5gkch5i0g1,Nick_Dissertation_EX2_EP_MSU_TEXAS,1,51,2022-11-10T18:25:02+00:00,8.2270359992981,5,Pure_Unrelated.csv,READVersionA.csv,"Read Pure U A","Read Pure U A",GEESE,GOOSE,BUFFER2,Buffer,86,51,STUDY,8,8,,Study/JOL,BUFFER2,8007,,,-1,-1,,,,1
m20301553,5gkch5i0g1,Nick_Dissertation_EX2_EP_MSU_TEXAS,1,52,2022-11-10T18:25:05+00:00,3.2789478302002,5,Pure_Unrelated.csv,READVersionA.csv,"Read Pure U A","Read Pure U A",,,,,,0,Instruct,User,-,"You have completed this section. Please press Enter.",Filler_Instruction,Instruct2,3076,,,-1,-1,,,,1
m20301553,5gkch5i0g1,Nick_Dissertation_EX2_EP_MSU_TEXAS,1,53,2022-11-10T18:27:05+00:00,120.23063802719,5,Pure_Unrelated.csv,READVersionA.csv,"Read Pure U A","Read Pure U A",,,,,,0,FreeRecall,120,120,"Please list the 50 US states in alphabetical order. The task will automatically advance to the next screen after two minutes.",,Filler1,120008,"Alabama, Arkansas, California, Connecticut, Delaware, ",0,11251,91448,0,0,,0.995
m20301553,5gkch5i0g1,Nick_Dissertation_EX2_EP_MSU_TEXAS,1,54,2022-11-10T18:27:19+00:00,14.233253955841,5,Pure_Unrelated.csv,READVersionA.csv,"Read Pure U A","Read Pure U A",,,,,,0,Instruct,-,10,"You will now be presented with the first word from each of the previously studied item pairs. Please type the missing word. If you do not know the word, you may guess or press Enter to skip forward to the next pair.",,Instruct3,14008,,,-1,-1,,,,1
m20301553,5gkch5i0g1,Nick_Dissertation_EX2_EP_MSU_TEXAS,1,55,2022-11-10T18:27:42+00:00,22.515568971634,5,Pure_Unrelated.csv,READVersionA.csv,"Read Pure U A","Read Pure U A",CAKE,CLOTHES,Study1,U,16,11,Test,User,-,,Recall,Recall1,22281,,0,-1,-1,0,0,,1
m20301553,5gkch5i0g1,Nick_Dissertation_EX2_EP_MSU_TEXAS,1,56,2022-11-10T18:27:44+00:00,2.6914930343628,5,Pure_Unrelated.csv,READVersionA.csv,"Read Pure U A","Read Pure U A",RIPE,VERIFY,Study1,U,83,32,Test,User,-,,Recall,Recall1,2485,,0,-1,-1,0,0,,1
m20301553,5gkch5i0g1,Nick_Dissertation_EX2_EP_MSU_TEXAS,1,57,2022-11-10T18:27:46+00:00,1.6636760234833,5,Pure_Unrelated.csv,READVersionA.csv,"Read Pure U A","Read Pure U A",RESIST,GLUE,Study1,U,69,27,Test,User,-,,Recall,Recall1,1465,,0,-1,-1,0,0,,1
m20301553,5gkch5i0g1,Nick_Dissertation_EX2_EP_MSU_TEXAS,1,58,2022-11-10T18:27:52+00:00,5.8563029766083,5,Pure_Unrelated.csv,READVersionA.csv,"Read Pure U A","Read Pure U A",BAT,SHAKY,Study1,U,66,38,Test,User,-,,Recall,Recall1,5650,struck,36.363636363636,3358,4251,0,0,,1
m20301553,5gkch5i0g1,Nick_Dissertation_EX2_EP_MSU_TEXAS,1,59,2022-11-10T18:27:58+00:00,6.3580360412598,5,Pure_Unrelated.csv,READVersionA.csv,"Read Pure U A","Read Pure U A",STRESS,YAM,Study1,U,68,8,Test,User,-,,Recall,Recall1,6160,relief,0,2753,5202,0,0,,1
m20301553,5gkch5i0g1,Nick_Dissertation_EX2_EP_MSU_TEXAS,1,60,2022-11-10T18:28:02+00:00,4.0315489768982,5,Pure_Unrelated.csv,READVersionA.csv,"Read Pure U A","Read Pure U A",MIRROR,CHILDREN,Study1,U,24,44,Test,User,-,,Recall,Recall1,3829,wall,16.666666666667,2351,2760,0,0,,1
m20301553,5gkch5i0g1,Nick_Dissertation_EX2_EP_MSU_TEXAS,1,61,2022-11-10T18:28:06+00:00,3.3395750522614,5,Pure_Unrelated.csv,READVersionA.csv,"Read Pure U A","Read Pure U A",WARN,SEA,Study1,U,80,37,Test,User,-,,Recall,Recall1,3134,sea,100,1753,2115,1,1,,1
m20301553,5gkch5i0g1,Nick_Dissertation_EX2_EP_MSU_TEXAS,1,62,2022-11-10T18:28:18+00:00,12.026453971863,5,Pure_Unrelated.csv,READVersionA.csv,"Read Pure U A","Read Pure U A",KEYS,JOKE,Study1,U,15,16,Test,User,-,,Recall,Recall1,11812,stuck,22.222222222222,7236,8016,0,0,,1
m20301553,5gkch5i0g1,Nick_Dissertation_EX2_EP_MSU_TEXAS,1,63,2022-11-10T18:28:23+00:00,5.3578410148621,5,Pure_Unrelated.csv,READVersionA.csv,"Read Pure U A","Read Pure U A",FUZZY,BANG,Study1,U,18,19,Test,User,-,,Recall,Recall1,4959,socks,0,3382,3995,0,0,,1
m20301553,5gkch5i0g1,Nick_Dissertation_EX2_EP_MSU_TEXAS,1,64,2022-11-10T18:28:30+00:00,6.9156601428986,5,Pure_Unrelated.csv,READVersionA.csv,"Read Pure U A","Read Pure U A",PARCEL,THROAT,Study1,U,67,40,Test,User,-,,Recall,Recall1,6710,neck,0,3935,4312,0,0,,1
m20301553,5gkch5i0g1,Nick_Dissertation_EX2_EP_MSU_TEXAS,1,65,2022-11-10T18:28:36+00:00,5.7784039974213,5,Pure_Unrelated.csv,READVersionA.csv,"Read Pure U A","Read Pure U A",MOAT,CLEAR,Study1,U,19,35,Test,User,-,,Recall,Recall1,5582,loat,44.444444444444,3829,4499,0,0,,1
m20301553,5gkch5i0g1,Nick_Dissertation_EX2_EP_MSU_TEXAS,1,66,2022-11-10T18:28:39+00:00,3.0685279369354,5,Pure_Unrelated.csv,READVersionA.csv,"Read Pure U A","Read Pure U A",DEGREE,CHAIR,Study1,U,71,13,Test,User,-,,Recall,Recall1,2874,,0,-1,-1,0,0,,1
m20301553,5gkch5i0g1,Nick_Dissertation_EX2_EP_MSU_TEXAS,1,67,2022-11-10T18:28:42+00:00,2.9226050376892,5,Pure_Unrelated.csv,READVersionA.csv,"Read Pure U A","Read Pure U A",MAIN,SCAR,Study1,U,25,15,Test,User,-,,Recall,Recall1,2704,,0,-1,-1,0,0,,1
m20301553,5gkch5i0g1,Nick_Dissertation_EX2_EP_MSU_TEXAS,1,68,2022-11-10T18:30:00+00:00,77.757709026337,5,Pure_Unrelated.csv,READVersionA.csv,"Read Pure U A","Read Pure U A",ROSE,NEGLECT,Study1,U,82,25,Test,User,-,,Recall,Recall1,77519,,0,-1,-1,0,0,,0.882
m20301553,5gkch5i0g1,Nick_Dissertation_EX2_EP_MSU_TEXAS,1,69,2022-11-10T18:30:04+00:00,4.3168318271637,5,Pure_Unrelated.csv,READVersionA.csv,"Read Pure U A","Read Pure U A",NAME,HATE,Study1,U,17,45,Test,User,-,,Recall,Recall1,4093,tag,28.571428571429,1582,1898,0,0,,1
m20301553,5gkch5i0g1,Nick_Dissertation_EX2_EP_MSU_TEXAS,1,70,2022-11-10T18:30:07+00:00,3.1623511314392,5,Pure_Unrelated.csv,READVersionA.csv,"Read Pure U A","Read Pure U A",CRAYON,RATE,Study1,U,79,33,Test,User,-,,Recall,Recall1,2950,,0,-1,-1,0,0,,1
m20301553,5gkch5i0g1,Nick_Dissertation_EX2_EP_MSU_TEXAS,1,71,2022-11-10T18:30:08+00:00,1.4016299247742,5,Pure_Unrelated.csv,READVersionA.csv,"Read Pure U A","Read Pure U A",CRACKLE,ABLE,Study1,U,12,43,Test,User,-,,Recall,Recall1,1209,,0,-1,-1,0,0,,1
m20301553,5gkch5i0g1,Nick_Dissertation_EX2_EP_MSU_TEXAS,1,72,2022-11-10T18:30:15+00:00,6.3455979824066,5,Pure_Unrelated.csv,READVersionA.csv,"Read Pure U A","Read Pure U A",GIVE,STEAK,Study1,U,8,29,Test,User,-,,Recall,Recall1,6131,me,28.571428571429,4435,5108,0,0,,1
m20301553,5gkch5i0g1,Nick_Dissertation_EX2_EP_MSU_TEXAS,1,73,2022-11-10T18:30:21+00:00,6.6741900444031,5,Pure_Unrelated.csv,READVersionA.csv,"Read Pure U A","Read Pure U A",JUSTICE,MAROON,Study1,U,6,28,Test,User,-,,Recall,Recall1,6458,maroon,100,3213,4118,1,1,,1
m20301553,5gkch5i0g1,Nick_Dissertation_EX2_EP_MSU_TEXAS,1,74,2022-11-10T18:30:23+00:00,1.6597628593445,5,Pure_Unrelated.csv,READVersionA.csv,"Read Pure U A","Read Pure U A",TAX,OWL,Study1,U,72,23,Test,User,-,,Recall,Recall1,1455,,0,-1,-1,0,0,,1
m20301553,5gkch5i0g1,Nick_Dissertation_EX2_EP_MSU_TEXAS,1,75,2022-11-10T18:30:25+00:00,1.424901008606,5,Pure_Unrelated.csv,READVersionA.csv,"Read Pure U A","Read Pure U A",BROAD,INFECT,Study1,U,75,36,Test,User,-,,Recall,Recall1,1211,,0,-1,-1,0,0,,1
m20301553,5gkch5i0g1,Nick_Dissertation_EX2_EP_MSU_TEXAS,1,76,2022-11-10T18:30:26+00:00,1.5967800617218,5,Pure_Unrelated.csv,READVersionA.csv,"Read Pure U A","Read Pure U A",BOTH,OUNCE,Study1,U,22,41,Test,User,-,,Recall,Recall1,1380,,0,-1,-1,0,0,,1
m20301553,5gkch5i0g1,Nick_Dissertation_EX2_EP_MSU_TEXAS,1,77,2022-11-10T18:30:29+00:00,2.7017149925232,5,Pure_Unrelated.csv,READVersionA.csv,"Read Pure U A","Read Pure U A",TEMPERATURE,MORNING,Study1,U,23,17,Test,User,-,,Recall,Recall1,2502,,0,-1,-1,0,0,,1
m20301553,5gkch5i0g1,Nick_Dissertation_EX2_EP_MSU_TEXAS,1,78,2022-11-10T18:30:31+00:00,1.7088170051575,5,Pure_Unrelated.csv,READVersionA.csv,"Read Pure U A","Read Pure U A",PET,MOON,Study1,U,74,14,Test,User,-,,Recall,Recall1,1504,,0,-1,-1,0,0,,1
m20301553,5gkch5i0g1,Nick_Dissertation_EX2_EP_MSU_TEXAS,1,79,2022-11-10T18:30:32+00:00,1.6008999347687,5,Pure_Unrelated.csv,READVersionA.csv,"Read Pure U A","Read Pure U A",DIZZY,SWEATER,Study1,U,77,39,Test,User,-,,Recall,Recall1,1383,,0,-1,-1,0,0,,1
m20301553,5gkch5i0g1,Nick_Dissertation_EX2_EP_MSU_TEXAS,1,80,2022-11-10T18:30:36+00:00,4.2643020153046,5,Pure_Unrelated.csv,READVersionA.csv,"Read Pure U A","Read Pure U A",FUTURE,SINCERE,Study1,U,70,18,Test,User,-,,Recall,Recall1,4062,sincere,100,1987,3046,1,1,,1
m20301553,5gkch5i0g1,Nick_Dissertation_EX2_EP_MSU_TEXAS,1,81,2022-11-10T18:30:44+00:00,7.3038990497589,5,Pure_Unrelated.csv,READVersionA.csv,"Read Pure U A","Read Pure U A",STRETCH,CLOTH,Study1,U,7,46,Test,User,-,,Recall,Recall1,7100,"clothes ",83.333333333333,4290,5995,0,1,,1
m20301553,5gkch5i0g1,Nick_Dissertation_EX2_EP_MSU_TEXAS,1,82,2022-11-10T18:30:48+00:00,4.3002679347992,5,Pure_Unrelated.csv,READVersionA.csv,"Read Pure U A","Read Pure U A",MEAT,OBTAIN,Study1,U,11,9,Test,User,-,,Recall,Recall1,4085,give,20,2736,3100,0,0,,1
m20301553,5gkch5i0g1,Nick_Dissertation_EX2_EP_MSU_TEXAS,1,83,2022-11-10T18:30:55+00:00,7.3951871395111,5,Pure_Unrelated.csv,READVersionA.csv,"Read Pure U A","Read Pure U A",NUMBER,HARD,Study1,U,78,7,Test,User,-,,Recall,Recall1,7198,,0,-1,-1,0,0,,1
m20301553,5gkch5i0g1,Nick_Dissertation_EX2_EP_MSU_TEXAS,1,84,2022-11-10T18:30:57+00:00,1.5638740062714,5,Pure_Unrelated.csv,READVersionA.csv,"Read Pure U A","Read Pure U A",LOAN,SIGN,Study1,U,21,12,Test,User,-,,Recall,Recall1,1355,,0,-1,-1,0,0,,1
m20301553,5gkch5i0g1,Nick_Dissertation_EX2_EP_MSU_TEXAS,1,85,2022-11-10T18:31:00+00:00,3.4758250713348,5,Pure_Unrelated.csv,READVersionA.csv,"Read Pure U A","Read Pure U A",LISTEN,FICTION,Study1,U,14,30,Test,User,-,,Recall,Recall1,3291,hear,0,2037,2352,0,0,,1
m20301553,5gkch5i0g1,Nick_Dissertation_EX2_EP_MSU_TEXAS,1,86,2022-11-10T18:31:02+00:00,1.0966429710388,5,Pure_Unrelated.csv,READVersionA.csv,"Read Pure U A","Read Pure U A",GRIND,STAND,Study1,U,85,10,Test,User,-,,Recall,Recall1,902,,0,-1,-1,0,0,,1
m20301553,5gkch5i0g1,Nick_Dissertation_EX2_EP_MSU_TEXAS,1,87,2022-11-10T18:31:04+00:00,2.3005928993225,5,Pure_Unrelated.csv,READVersionA.csv,"Read Pure U A","Read Pure U A",DONKEY,LUSH,Study1,U,84,26,Test,User,-,,Recall,Recall1,2099,,0,-1,-1,0,0,,1
m20301553,5gkch5i0g1,Nick_Dissertation_EX2_EP_MSU_TEXAS,1,88,2022-11-10T18:31:06+00:00,1.7213430404663,5,Pure_Unrelated.csv,READVersionA.csv,"Read Pure U A","Read Pure U A",INFLATE,DISGUST,Study1,U,76,24,Test,User,-,,Recall,Recall1,1450,,0,-1,-1,0,0,,1
m20301553,5gkch5i0g1,Nick_Dissertation_EX2_EP_MSU_TEXAS,1,89,2022-11-10T18:31:09+00:00,2.9778909683228,5,Pure_Unrelated.csv,READVersionA.csv,"Read Pure U A","Read Pure U A",DIFFICULT,POOR,Study1,U,81,20,Test,User,-,,Recall,Recall1,2646,poor,100,1441,1808,1,1,,1
m20301553,5gkch5i0g1,Nick_Dissertation_EX2_EP_MSU_TEXAS,1,90,2022-11-10T18:31:10+00:00,1.2355380058289,5,Pure_Unrelated.csv,READVersionA.csv,"Read Pure U A","Read Pure U A",LEASE,TOIL,Study1,U,20,42,Test,User,-,,Recall,Recall1,1032,,0,-1,-1,0,0,,1
m20301553,5gkch5i0g1,Nick_Dissertation_EX2_EP_MSU_TEXAS,1,91,2022-11-10T18:31:12+00:00,1.9426960945129,5,Pure_Unrelated.csv,READVersionA.csv,"Read Pure U A","Read Pure U A",MAZE,ELECTION,Study1,U,9,22,Test,User,-,,Recall,Recall1,1745,,0,-1,-1,0,0,,1
m20301553,5gkch5i0g1,Nick_Dissertation_EX2_EP_MSU_TEXAS,1,92,2022-11-10T18:31:13+00:00,1.1089899539948,5,Pure_Unrelated.csv,READVersionA.csv,"Read Pure U A","Read Pure U A",VEHICLE,CHARM,Study1,U,10,31,Test,User,-,,Recall,Recall1,908,,0,-1,-1,0,0,,1
m20301553,5gkch5i0g1,Nick_Dissertation_EX2_EP_MSU_TEXAS,1,93,2022-11-10T18:31:23+00:00,10.0706179142,5,Pure_Unrelated.csv,READVersionA.csv,"Read Pure U A","Read Pure U A",SHELL,SHAKE,Study1,U,13,34,Test,User,-,,Recall,Recall1,9874,shruck,54.545454545455,5321,7555,0,0,,1
m20301553,5gkch5i0g1,Nick_Dissertation_EX2_EP_MSU_TEXAS,1,94,2022-11-10T18:31:24+00:00,1.1011919975281,5,Pure_Unrelated.csv,READVersionA.csv,"Read Pure U A","Read Pure U A",THICK,CONTEST,Study1,U,73,21,Test,User,-,,Recall,Recall1,892,,0,-1,-1,0,0,,1
m20301553,5gkch5i0g1,Nick_Dissertation_EX2_EP_MSU_TEXAS,1,95,2022-11-10T18:31:36+00:00,11.516757011414,5,Pure_Unrelated.csv,READVersionA.csv,"Read Pure U A","Read Pure U A",,,,,,0,Instruct,-,10,"You will now be presented with a new set of word pairs. Please study each pair. Remember that your memory will be tested! Each pair will be displayed on the computer screen and will automatically advance to the next pair. Press ENTER when you are ready to begin.",Initial_Instruct,Instruct4,11299,,,-1,-1,,,,1
m20301553,5gkch5i0g1,Nick_Dissertation_EX2_EP_MSU_TEXAS,1,96,2022-11-10T18:31:44+00:00,8.2159569263458,5,Pure_Unrelated.csv,READVersionA.csv,"Read Pure U A","Read Pure U A",CARROT,POTATO,BUFFER3,Buffer,91,53,STUDY,8,8,,Study/JOL,BUFFER3,8008,,,-1,-1,,,,1
m20301553,5gkch5i0g1,Nick_Dissertation_EX2_EP_MSU_TEXAS,1,97,2022-11-10T18:31:52+00:00,8.2131581306458,5,Pure_Unrelated.csv,READVersionA.csv,"Read Pure U A","Read Pure U A",ICE,FROZEN,BUFFER3,Buffer,94,55,STUDY,8,8,,Study/JOL,BUFFER3,8002,,,-1,-1,,,,1
m20301553,5gkch5i0g1,Nick_Dissertation_EX2_EP_MSU_TEXAS,1,98,2022-11-10T18:32:00+00:00,8.2136709690094,5,Pure_Unrelated.csv,READVersionA.csv,"Read Pure U A","Read Pure U A",CAMP,ADVENTURE,BUFFER3,Buffer,95,54,STUDY,8,8,,Study/JOL,BUFFER3,8005,,,-1,-1,,,,1
m20301553,5gkch5i0g1,Nick_Dissertation_EX2_EP_MSU_TEXAS,1,99,2022-11-10T18:32:08+00:00,8.2176630496979,5,Pure_Unrelated.csv,READVersionA.csv,"Read Pure U A","Read Pure U A",SHRIMP,FISH,BUFFER3,Buffer,93,56,STUDY,8,8,,Study/JOL,BUFFER3,8007,,,-1,-1,,,,1
m20301553,5gkch5i0g1,Nick_Dissertation_EX2_EP_MSU_TEXAS,1,100,2022-11-10T18:32:17+00:00,8.2315120697021,5,Pure_Unrelated.csv,READVersionA.csv,"Read Pure U A","Read Pure U A",NOODLE,STRING,BUFFER3,Buffer,92,52,STUDY,8,8,,Study/JOL,BUFFER3,8002,,,-1,-1,,,,1
m20301553,5gkch5i0g1,Nick_Dissertation_EX2_EP_MSU_TEXAS,1,101,2022-11-10T18:32:25+00:00,8.5273518562317,5,Pure_Unrelated.csv,READVersionA.csv,"Read Pure U A","Read Pure U A",CLUTTER,PUSHER,Study2,U,96,88,STUDY,8,8,,Study/JOL,"Study Phase2",8009,,,-1,-1,,,,1
m20301553,5gkch5i0g1,Nick_Dissertation_EX2_EP_MSU_TEXAS,1,102,2022-11-10T18:32:33+00:00,8.2161750793457,5,Pure_Unrelated.csv,READVersionA.csv,"Read Pure U A","Read Pure U A",SACKING,DIETARY,Study2,U,97,82,STUDY,8,8,,Study/JOL,"Study Phase2",8006,,,-1,-1,,,,1
m20301553,5gkch5i0g1,Nick_Dissertation_EX2_EP_MSU_TEXAS,1,103,2022-11-10T18:32:42+00:00,8.2205350399017,5,Pure_Unrelated.csv,READVersionA.csv,"Read Pure U A","Read Pure U A",SPELL,BONE,Study2,U,174,77,STUDY,8,8,,Study/JOL,"Study Phase2",8005,,,-1,-1,,,,1
m20301553,5gkch5i0g1,Nick_Dissertation_EX2_EP_MSU_TEXAS,1,104,2022-11-10T18:32:50+00:00,8.211797952652,5,Pure_Unrelated.csv,READVersionA.csv,"Read Pure U A","Read Pure U A",SYSTEM,LICK,Study2,U,167,90,STUDY,8,8,,Study/JOL,"Study Phase2",8003,,,-1,-1,,,,1
m20301553,5gkch5i0g1,Nick_Dissertation_EX2_EP_MSU_TEXAS,1,105,2022-11-10T18:32:58+00:00,8.2410500049591,5,Pure_Unrelated.csv,READVersionA.csv,"Read Pure U A","Read Pure U A",SWING,FOG,Study2,U,175,85,STUDY,8,8,,Study/JOL,"Study Phase2",8009,,,-1,-1,,,,1
m20301553,5gkch5i0g1,Nick_Dissertation_EX2_EP_MSU_TEXAS,1,106,2022-11-10T18:33:06+00:00,8.2529029846191,5,Pure_Unrelated.csv,READVersionA.csv,"Read Pure U A","Read Pure U A",BRONZE,ARTERY,Study2,U,104,62,STUDY,8,8,,Study/JOL,"Study Phase2",8002,,,-1,-1,,,,1
m20301553,5gkch5i0g1,Nick_Dissertation_EX2_EP_MSU_TEXAS,1,107,2022-11-10T18:33:15+00:00,8.2386338710785,5,Pure_Unrelated.csv,READVersionA.csv,"Read Pure U A","Read Pure U A",ROAD,SCENT,Study2,U,166,94,STUDY,8,8,,Study/JOL,"Study Phase2",8004,,,-1,-1,,,,1
m20301553,5gkch5i0g1,Nick_Dissertation_EX2_EP_MSU_TEXAS,1,108,2022-11-10T18:33:23+00:00,8.2229180335999,5,Pure_Unrelated.csv,READVersionA.csv,"Read Pure U A","Read Pure U A",ADD,VALLEY,Study2,U,112,59,STUDY,8,8,,Study/JOL,"Study Phase2",8002,,,-1,-1,,,,1
m20301553,5gkch5i0g1,Nick_Dissertation_EX2_EP_MSU_TEXAS,1,109,2022-11-10T18:33:31+00:00,8.2536280155182,5,Pure_Unrelated.csv,READVersionA.csv,"Read Pure U A","Read Pure U A",LAKE,OPINION,Study2,U,160,68,STUDY,8,8,,Study/JOL,"Study Phase2",8003,,,-1,-1,,,,1
m20301553,5gkch5i0g1,Nick_Dissertation_EX2_EP_MSU_TEXAS,1,110,2022-11-10T18:33:39+00:00,8.218672990799,5,Pure_Unrelated.csv,READVersionA.csv,"Read Pure U A","Read Pure U A",MUTE,WAVE,Study2,U,173,96,STUDY,8,8,,Study/JOL,"Study Phase2",8002,,,-1,-1,,,,1
m20301553,5gkch5i0g1,Nick_Dissertation_EX2_EP_MSU_TEXAS,1,111,2022-11-10T18:33:47+00:00,8.2154901027679,5,Pure_Unrelated.csv,READVersionA.csv,"Read Pure U A","Read Pure U A",ADD,VALLEY,Study2,U,112,59,STUDY,8,8,,Study/JOL,"Study Phase2",8004,,,-1,-1,,,,1
m20301553,5gkch5i0g1,Nick_Dissertation_EX2_EP_MSU_TEXAS,1,112,2022-11-10T18:33:56+00:00,8.225487947464,5,Pure_Unrelated.csv,READVersionA.csv,"Read Pure U A","Read Pure U A",FLOOR,DISCOVER,Study2,U,101,91,STUDY,8,8,,Study/JOL,"Study Phase2",8005,,,-1,-1,,,,1
m20301553,5gkch5i0g1,Nick_Dissertation_EX2_EP_MSU_TEXAS,1,113,2022-11-10T18:34:04+00:00,8.2297530174255,5,Pure_Unrelated.csv,READVersionA.csv,"Read Pure U A","Read Pure U A",SMOOTH,OMIT,Study2,U,157,79,STUDY,8,8,,Study/JOL,"Study Phase2",8001,,,-1,-1,,,,1
m20301553,5gkch5i0g1,Nick_Dissertation_EX2_EP_MSU_TEXAS,1,114,2022-11-10T18:34:12+00:00,8.2223238945007,5,Pure_Unrelated.csv,READVersionA.csv,"Read Pure U A","Read Pure U A",POSITION,MACHINE,Study2,U,106,86,STUDY,8,8,,Study/JOL,"Study Phase2",8001,,,-1,-1,,,,1
m20301553,5gkch5i0g1,Nick_Dissertation_EX2_EP_MSU_TEXAS,1,115,2022-11-10T18:34:20+00:00,8.2210140228271,5,Pure_Unrelated.csv,READVersionA.csv,"Read Pure U A","Read Pure U A",SLIM,KNOW,Study2,U,164,84,STUDY,8,8,,Study/JOL,"Study Phase2",8002,,,-1,-1,,,,1
m20301553,5gkch5i0g1,Nick_Dissertation_EX2_EP_MSU_TEXAS,1,116,2022-11-10T18:34:29+00:00,8.2213101387024,5,Pure_Unrelated.csv,READVersionA.csv,"Read Pure U A","Read Pure U A",READY,CORN,Study2,U,158,81,STUDY,8,8,,Study/JOL,"Study Phase2",8002,,,-1,-1,,,,1
m20301553,5gkch5i0g1,Nick_Dissertation_EX2_EP_MSU_TEXAS,1,117,2022-11-10T18:34:37+00:00,8.2480788230896,5,Pure_Unrelated.csv,READVersionA.csv,"Read Pure U A","Read Pure U A",CAR,HAPPY,Study2,U,107,89,STUDY,8,8,,Study/JOL,"Study Phase2",8005,,,-1,-1,,,,1
m20301553,5gkch5i0g1,Nick_Dissertation_EX2_EP_MSU_TEXAS,1,118,2022-11-10T18:34:45+00:00,8.2247970104218,5,Pure_Unrelated.csv,READVersionA.csv,"Read Pure U A","Read Pure U A",HUNGRY,PARK,Study2,U,98,75,STUDY,8,8,,Study/JOL,"Study Phase2",8006,,,-1,-1,,,,1
m20301553,5gkch5i0g1,Nick_Dissertation_EX2_EP_MSU_TEXAS,1,119,2022-11-10T18:34:53+00:00,8.2491040229797,5,Pure_Unrelated.csv,READVersionA.csv,"Read Pure U A","Read Pure U A",DETECT,FREE,Study2,U,162,57,STUDY,8,8,,Study/JOL,"Study Phase2",8010,,,-1,-1,,,,1
m20301553,5gkch5i0g1,Nick_Dissertation_EX2_EP_MSU_TEXAS,1,120,2022-11-10T18:35:01+00:00,8.2109291553497,5,Pure_Unrelated.csv,READVersionA.csv,"Read Pure U A","Read Pure U A",SIGHT,DEBATE,Study2,U,103,74,STUDY,8,8,,Study/JOL,"Study Phase2",8002,,,-1,-1,,,,1
m20301553,5gkch5i0g1,Nick_Dissertation_EX2_EP_MSU_TEXAS,1,121,2022-11-10T18:35:10+00:00,8.2163228988647,5,Pure_Unrelated.csv,READVersionA.csv,"Read Pure U A","Read Pure U A",DESIRE,NOISE,Study2,U,169,80,STUDY,8,8,,Study/JOL,"Study Phase2",8005,,,-1,-1,,,,1
m20301553,5gkch5i0g1,Nick_Dissertation_EX2_EP_MSU_TEXAS,1,122,2022-11-10T18:35:18+00:00,8.2249820232391,5,Pure_Unrelated.csv,READVersionA.csv,"Read Pure U A","Read Pure U A",PUT,ROLL,Study2,U,163,93,STUDY,8,8,,Study/JOL,"Study Phase2",8003,,,-1,-1,,,,1
m20301553,5gkch5i0g1,Nick_Dissertation_EX2_EP_MSU_TEXAS,1,123,2022-11-10T18:35:26+00:00,8.2263600826263,5,Pure_Unrelated.csv,READVersionA.csv,"Read Pure U A","Read Pure U A",TAX,OWL,Study1,U,72,23,STUDY,8,8,,Study/JOL,"Study Phase2",8002,,,-1,-1,,,,1
m20301553,5gkch5i0g1,Nick_Dissertation_EX2_EP_MSU_TEXAS,1,124,2022-11-10T18:35:34+00:00,8.2160108089447,5,Pure_Unrelated.csv,READVersionA.csv,"Read Pure U A","Read Pure U A",ZOO,THUMB,Study2,U,168,61,STUDY,8,8,,Study/JOL,"Study Phase2",8009,,,-1,-1,,,,1
m20301553,5gkch5i0g1,Nick_Dissertation_EX2_EP_MSU_TEXAS,1,125,2022-11-10T18:35:43+00:00,8.5296351909637,5,Pure_Unrelated.csv,READVersionA.csv,"Read Pure U A","Read Pure U A",WOULD,CASH,Study2,U,113,73,STUDY,8,8,,Study/JOL,"Study Phase2",8003,,,-1,-1,,,,1
m20301553,5gkch5i0g1,Nick_Dissertation_EX2_EP_MSU_TEXAS,1,126,2022-11-10T18:35:51+00:00,8.2166059017181,5,Pure_Unrelated.csv,READVersionA.csv,"Read Pure U A","Read Pure U A",RIDDLE,SUGAR,Study2,U,111,66,STUDY,8,8,,Study/JOL,"Study Phase2",8009,,,-1,-1,,,,1
m20301553,5gkch5i0g1,Nick_Dissertation_EX2_EP_MSU_TEXAS,1,127,2022-11-10T18:35:59+00:00,8.2128210067749,5,Pure_Unrelated.csv,READVersionA.csv,"Read Pure U A","Read Pure U A",WASTE,SEDATE,Study2,U,165,65,STUDY,8,8,,Study/JOL,"Study Phase2",8003,,,-1,-1,,,,1
m20301553,5gkch5i0g1,Nick_Dissertation_EX2_EP_MSU_TEXAS,1,128,2022-11-10T18:36:08+00:00,8.2266330718994,5,Pure_Unrelated.csv,READVersionA.csv,"Read Pure U A","Read Pure U A",FLOAT,HARMONY,Study2,U,161,87,STUDY,8,8,,Study/JOL,"Study Phase2",8012,,,-1,-1,,,,1
m20301553,5gkch5i0g1,Nick_Dissertation_EX2_EP_MSU_TEXAS,1,129,2022-11-10T18:36:16+00:00,8.2194728851318,5,Pure_Unrelated.csv,READVersionA.csv,"Read Pure U A","Read Pure U A",Business,Death,Study2,U,102,69,STUDY,8,8,,Study/JOL,"Study Phase2",8001,,,-1,-1,,,,1
m20301553,5gkch5i0g1,Nick_Dissertation_EX2_EP_MSU_TEXAS,1,130,2022-11-10T18:36:24+00:00,8.2240281105042,5,Pure_Unrelated.csv,READVersionA.csv,"Read Pure U A","Read Pure U A",SICK,HIDE,Study2,U,114,72,STUDY,8,8,,Study/JOL,"Study Phase2",8012,,,-1,-1,,,,1
m20301553,5gkch5i0g1,Nick_Dissertation_EX2_EP_MSU_TEXAS,1,131,2022-11-10T18:36:32+00:00,8.2174170017242,5,Pure_Unrelated.csv,READVersionA.csv,"Read Pure U A","Read Pure U A",BELT,SOON,Study2,U,100,71,STUDY,8,8,,Study/JOL,"Study Phase2",8005,,,-1,-1,,,,1
m20301553,5gkch5i0g1,Nick_Dissertation_EX2_EP_MSU_TEXAS,1,132,2022-11-10T18:36:40+00:00,8.2124979496002,5,Pure_Unrelated.csv,READVersionA.csv,"Read Pure U A","Read Pure U A",GUARD,WHEEL,Study2,U,170,76,STUDY,8,8,,Study/JOL,"Study Phase2",8003,,,-1,-1,,,,1
m20301553,5gkch5i0g1,Nick_Dissertation_EX2_EP_MSU_TEXAS,1,133,2022-11-10T18:36:49+00:00,8.2280359268188,5,Pure_Unrelated.csv,READVersionA.csv,"Read Pure U A","Read Pure U A",HAND,FIX,Study2,U,105,60,STUDY,8,8,,Study/JOL,"Study Phase2",8011,,,-1,-1,,,,1
m20301553,5gkch5i0g1,Nick_Dissertation_EX2_EP_MSU_TEXAS,1,134,2022-11-10T18:36:57+00:00,8.2070331573486,5,Pure_Unrelated.csv,READVersionA.csv,"Read Pure U A","Read Pure U A",VASE,KING,Study2,U,115,64,STUDY,8,8,,Study/JOL,"Study Phase2",8002,,,-1,-1,,,,1
m20301553,5gkch5i0g1,Nick_Dissertation_EX2_EP_MSU_TEXAS,1,135,2022-11-10T18:37:05+00:00,8.6283860206604,5,Pure_Unrelated.csv,READVersionA.csv,"Read Pure U A","Read Pure U A",WOMAN,LIFT,Study2,U,99,92,STUDY,8,8,,Study/JOL,"Study Phase2",8010,,,-1,-1,,,,1
m20301553,5gkch5i0g1,Nick_Dissertation_EX2_EP_MSU_TEXAS,1,136,2022-11-10T18:37:14+00:00,8.2219088077545,5,Pure_Unrelated.csv,READVersionA.csv,"Read Pure U A","Read Pure U A",STOMACH,TOWN,Study2,U,159,67,STUDY,8,8,,Study/JOL,"Study Phase2",8009,,,-1,-1,,,,1
m20301553,5gkch5i0g1,Nick_Dissertation_EX2_EP_MSU_TEXAS,1,137,2022-11-10T18:37:22+00:00,8.2148251533508,5,Pure_Unrelated.csv,READVersionA.csv,"Read Pure U A","Read Pure U A",PUFF,NUMBER,Study2,U,171,78,STUDY,8,8,,Study/JOL,"Study Phase2",8006,,,-1,-1,,,,1
m20301553,5gkch5i0g1,Nick_Dissertation_EX2_EP_MSU_TEXAS,1,138,2022-11-10T18:37:30+00:00,8.2217869758606,5,Pure_Unrelated.csv,READVersionA.csv,"Read Pure U A","Read Pure U A",ACCIDENT,STRONG,Study2,U,110,70,STUDY,8,8,,Study/JOL,"Study Phase2",8002,,,-1,-1,,,,1
m20301553,5gkch5i0g1,Nick_Dissertation_EX2_EP_MSU_TEXAS,1,139,2022-11-10T18:37:38+00:00,8.2224159240723,5,Pure_Unrelated.csv,READVersionA.csv,"Read Pure U A","Read Pure U A",TUCK,ALLOW,Study2,U,108,63,STUDY,8,8,,Study/JOL,"Study Phase2",8009,,,-1,-1,,,,1
m20301553,5gkch5i0g1,Nick_Dissertation_EX2_EP_MSU_TEXAS,1,140,2022-11-10T18:37:47+00:00,8.2178349494934,5,Pure_Unrelated.csv,READVersionA.csv,"Read Pure U A","Read Pure U A",JELLY,NAUGHTY,Study2,U,172,95,STUDY,8,8,,Study/JOL,"Study Phase2",8006,,,-1,-1,,,,1
m20301553,5gkch5i0g1,Nick_Dissertation_EX2_EP_MSU_TEXAS,1,141,2022-11-10T18:37:55+00:00,8.2648110389709,5,Pure_Unrelated.csv,READVersionA.csv,"Read Pure U A","Read Pure U A",TOOL,SHED,BUFFER4,Buffer,178,98,STUDY,8,8,,Study/JOL,BUFFER4,8002,,,-1,-1,,,,1
m20301553,5gkch5i0g1,Nick_Dissertation_EX2_EP_MSU_TEXAS,1,142,2022-11-10T18:38:03+00:00,8.2253060340881,5,Pure_Unrelated.csv,READVersionA.csv,"Read Pure U A","Read Pure U A",MONTH,YEAR,BUFFER4,Buffer,177,99,STUDY,8,8,,Study/JOL,BUFFER4,8002,,,-1,-1,,,,1
m20301553,5gkch5i0g1,Nick_Dissertation_EX2_EP_MSU_TEXAS,1,143,2022-11-10T18:38:11+00:00,8.2140109539032,5,Pure_Unrelated.csv,READVersionA.csv,"Read Pure U A","Read Pure U A",SPRING,MARCH,BUFFER4,Buffer,179,100,STUDY,8,8,,Study/JOL,BUFFER4,8002,,,-1,-1,,,,1
m20301553,5gkch5i0g1,Nick_Dissertation_EX2_EP_MSU_TEXAS,1,144,2022-11-10T18:38:20+00:00,8.2331960201263,5,Pure_Unrelated.csv,READVersionA.csv,"Read Pure U A","Read Pure U A",OCTOBER,SPOOKY,BUFFER4,Buffer,180,97,STUDY,8,8,,Study/JOL,BUFFER4,8004,,,-1,-1,,,,1
m20301553,5gkch5i0g1,Nick_Dissertation_EX2_EP_MSU_TEXAS,1,145,2022-11-10T18:38:28+00:00,8.2388679981232,5,Pure_Unrelated.csv,READVersionA.csv,"Read Pure U A","Read Pure U A",DAYS,WEEKS,BUFFER4,Buffer,176,101,STUDY,8,8,,Study/JOL,BUFFER4,8003,,,-1,-1,,,,1
m20301553,5gkch5i0g1,Nick_Dissertation_EX2_EP_MSU_TEXAS,1,146,2022-11-10T18:38:30+00:00,2.5336520671844,5,Pure_Unrelated.csv,READVersionA.csv,"Read Pure U A","Read Pure U A",,,,,,0,Instruct,User,-,"You have completed this section. Please press Enter.",Filler_Instruction,Instruct5,2326,,,-1,-1,,,,1
m20301553,5gkch5i0g1,Nick_Dissertation_EX2_EP_MSU_TEXAS,1,147,2022-11-10T18:40:31+00:00,120.24816203117,5,Pure_Unrelated.csv,READVersionA.csv,"Read Pure U A","Read Pure U A",,,,,,0,FreeRecall,120,120,"Please list the 50 US states in reverse alphabetical order (z - a). The task will automatically advance to the next screen after two minutes.",,Filler2,120003,"Wyoming, West Virginia, Texas, Oregon, Ohio, Rhode Island, ",0,10381,97187,0,0,,0.995
m20301553,5gkch5i0g1,Nick_Dissertation_EX2_EP_MSU_TEXAS,1,148,2022-11-10T18:40:42+00:00,10.979344844818,5,Pure_Unrelated.csv,READVersionA.csv,"Read Pure U A","Read Pure U A",,,,,,0,Instruct,-,10,"You will now be presented with the first word from each of the previously studied item pairs. Please type the missing word. If you do not know the word, you may guess or press Enter to skip forward to the next pair.",,Instruct6,10770,,,-1,-1,,,,1
m20301553,5gkch5i0g1,Nick_Dissertation_EX2_EP_MSU_TEXAS,1,149,2022-11-10T18:40:47+00:00,5.9551091194153,5,Pure_Unrelated.csv,READVersionA.csv,"Read Pure U A","Read Pure U A",WOULD,CASH,Study2,U,113,73,Test,User,-,,Recall,Recall2,5720,,0,-1,-1,0,0,,1
m20301553,5gkch5i0g1,Nick_Dissertation_EX2_EP_MSU_TEXAS,1,150,2022-11-10T18:40:50+00:00,2.5316920280457,5,Pure_Unrelated.csv,READVersionA.csv,"Read Pure U A","Read Pure U A",SICK,HIDE,Study2,U,114,72,Test,User,-,,Recall,Recall2,2331,,0,-1,-1,0,0,,1
m20301553,5gkch5i0g1,Nick_Dissertation_EX2_EP_MSU_TEXAS,1,151,2022-11-10T18:40:52+00:00,2.2406828403473,5,Pure_Unrelated.csv,READVersionA.csv,"Read Pure U A","Read Pure U A",SYSTEM,LICK,Study2,U,167,90,Test,User,-,,Recall,Recall2,1704,,0,-1,-1,0,0,,1
m20301553,5gkch5i0g1,Nick_Dissertation_EX2_EP_MSU_TEXAS,1,152,2022-11-10T18:40:54+00:00,2.2373270988464,5,Pure_Unrelated.csv,READVersionA.csv,"Read Pure U A","Read Pure U A",READY,CORN,Study2,U,158,81,Test,User,-,,Recall,Recall2,2025,,0,-1,-1,0,0,,1
m20301553,5gkch5i0g1,Nick_Dissertation_EX2_EP_MSU_TEXAS,1,153,2022-11-10T18:40:58+00:00,3.6401109695435,5,Pure_Unrelated.csv,READVersionA.csv,"Read Pure U A","Read Pure U A",ACCIDENT,STRONG,Study2,U,110,70,Test,User,-,,Recall,Recall2,3425,strong,100,1844,2439,1,1,,1
m20301553,5gkch5i0g1,Nick_Dissertation_EX2_EP_MSU_TEXAS,1,154,2022-11-10T18:41:03+00:00,5.2296230792999,5,Pure_Unrelated.csv,READVersionA.csv,"Read Pure U A","Read Pure U A",WASTE,SEDATE,Study2,U,165,65,Test,User,-,,Recall,Recall2,5022,,0,2852,3415,0,0,,1
m20301553,5gkch5i0g1,Nick_Dissertation_EX2_EP_MSU_TEXAS,1,155,2022-11-10T18:41:11+00:00,7.5379650592804,5,Pure_Unrelated.csv,READVersionA.csv,"Read Pure U A","Read Pure U A",CAR,HAPPY,Study2,U,107,89,Test,User,-,,Recall,Recall2,7325,happy,100,5695,6154,1,1,,1
m20301553,5gkch5i0g1,Nick_Dissertation_EX2_EP_MSU_TEXAS,1,156,2022-11-10T18:41:14+00:00,3.1504278182983,5,Pure_Unrelated.csv,READVersionA.csv,"Read Pure U A","Read Pure U A",SWING,FOG,Study2,U,175,85,Test,User,-,,Recall,Recall2,2950,,0,-1,-1,0,0,,1
m20301553,5gkch5i0g1,Nick_Dissertation_EX2_EP_MSU_TEXAS,1,157,2022-11-10T18:41:19+00:00,4.8801891803741,5,Pure_Unrelated.csv,READVersionA.csv,"Read Pure U A","Read Pure U A",Business,Death,Study2,U,102,69,Test,User,-,,Recall,Recall2,4677,death,100,3002,3715,1,1,,1
m20301553,5gkch5i0g1,Nick_Dissertation_EX2_EP_MSU_TEXAS,1,158,2022-11-10T18:41:22+00:00,2.7810318470001,5,Pure_Unrelated.csv,READVersionA.csv,"Read Pure U A","Read Pure U A",SIGHT,DEBATE,Study2,U,103,74,Test,User,-,,Recall,Recall2,2583,eyes,40,1892,2492,0,0,,1
m20301553,5gkch5i0g1,Nick_Dissertation_EX2_EP_MSU_TEXAS,1,159,2022-11-10T18:41:24+00:00,1.8727130889893,5,Pure_Unrelated.csv,READVersionA.csv,"Read Pure U A","Read Pure U A",BELT,SOON,Study2,U,100,71,Test,User,-,,Recall,Recall2,1668,,0,-1,-1,0,0,,1
m20301553,5gkch5i0g1,Nick_Dissertation_EX2_EP_MSU_TEXAS,1,160,2022-11-10T18:41:28+00:00,4.0658459663391,5,Pure_Unrelated.csv,READVersionA.csv,"Read Pure U A","Read Pure U A",DETECT,FREE,Study2,U,162,57,Test,User,-,,Recall,Recall2,3848,,0,-1,-1,0,0,,1
m20301553,5gkch5i0g1,Nick_Dissertation_EX2_EP_MSU_TEXAS,1,161,2022-11-10T18:41:33+00:00,4.9661660194397,5,Pure_Unrelated.csv,READVersionA.csv,"Read Pure U A","Read Pure U A",SPELL,BONE,Study2,U,174,77,Test,User,-,,Recall,Recall2,4756,,0,-1,-1,0,0,,1
m20301553,5gkch5i0g1,Nick_Dissertation_EX2_EP_MSU_TEXAS,1,162,2022-11-10T18:41:36+00:00,3.5885128974915,5,Pure_Unrelated.csv,READVersionA.csv,"Read Pure U A","Read Pure U A",POSITION,MACHINE,Study2,U,106,86,Test,User,-,,Recall,Recall2,3377,,0,-1,-1,0,0,,1
m20301553,5gkch5i0g1,Nick_Dissertation_EX2_EP_MSU_TEXAS,1,163,2022-11-10T18:41:38+00:00,1.6235961914062,5,Pure_Unrelated.csv,READVersionA.csv,"Read Pure U A","Read Pure U A",ROAD,SCENT,Study2,U,166,94,Test,User,-,,Recall,Recall2,1420,,0,-1,-1,0,0,,1
m20301553,5gkch5i0g1,Nick_Dissertation_EX2_EP_MSU_TEXAS,1,164,2022-11-10T18:41:39+00:00,1.2097618579865,5,Pure_Unrelated.csv,READVersionA.csv,"Read Pure U A","Read Pure U A",CLUTTER,PUSHER,Study2,U,96,88,Test,User,-,,Recall,Recall2,1005,,0,-1,-1,0,0,,1
m20301553,5gkch5i0g1,Nick_Dissertation_EX2_EP_MSU_TEXAS,1,165,2022-11-10T18:41:43+00:00,3.7868521213531,5,Pure_Unrelated.csv,READVersionA.csv,"Read Pure U A","Read Pure U A",ZOO,THUMB,Study2,U,168,61,Test,User,-,,Recall,Recall2,3579,thumb,100,1464,2553,1,1,,1
m20301553,5gkch5i0g1,Nick_Dissertation_EX2_EP_MSU_TEXAS,1,166,2022-11-10T18:41:47+00:00,3.6996088027954,5,Pure_Unrelated.csv,READVersionA.csv,"Read Pure U A","Read Pure U A",VASE,KING,Study2,U,115,64,Test,User,-,,Recall,Recall2,3490,,0,-1,-1,0,0,,1
m20301553,5gkch5i0g1,Nick_Dissertation_EX2_EP_MSU_TEXAS,1,167,2022-11-10T18:41:48+00:00,1.9503080844879,5,Pure_Unrelated.csv,READVersionA.csv,"Read Pure U A","Read Pure U A",TAX,OWL,Study1,U,72,23,Test,User,-,,Recall,Recall2,1748,owl,100,1264,1493,1,1,,1
m20301553,5gkch5i0g1,Nick_Dissertation_EX2_EP_MSU_TEXAS,1,168,2022-11-10T18:41:50+00:00,1.3527600765228,5,Pure_Unrelated.csv,READVersionA.csv,"Read Pure U A","Read Pure U A",SACKING,DIETARY,Study2,U,97,82,Test,User,-,,Recall,Recall2,1148,,0,-1,-1,0,0,,1
m20301553,5gkch5i0g1,Nick_Dissertation_EX2_EP_MSU_TEXAS,1,169,2022-11-10T18:41:55+00:00,5.5759429931641,5,Pure_Unrelated.csv,READVersionA.csv,"Read Pure U A","Read Pure U A",SLIM,KNOW,Study2,U,164,84,Test,User,-,,Recall,Recall2,5355,know,100,4710,5088,1,1,,1
m20301553,5gkch5i0g1,Nick_Dissertation_EX2_EP_MSU_TEXAS,1,170,2022-11-10T18:42:03+00:00,7.8635258674622,5,Pure_Unrelated.csv,READVersionA.csv,"Read Pure U A","Read Pure U A",HAND,FIX,Study2,U,105,60,Test,User,-,,Recall,Recall2,7627,,0,-1,-1,0,0,,1
m20301553,5gkch5i0g1,Nick_Dissertation_EX2_EP_MSU_TEXAS,1,171,2022-11-10T18:42:07+00:00,3.4300141334534,5,Pure_Unrelated.csv,READVersionA.csv,"Read Pure U A","Read Pure U A",PUT,ROLL,Study2,U,163,93,Test,User,-,,Recall,Recall2,3236,,0,-1,-1,0,0,,1
m20301553,5gkch5i0g1,Nick_Dissertation_EX2_EP_MSU_TEXAS,1,172,2022-11-10T18:42:10+00:00,3.0432028770447,5,Pure_Unrelated.csv,READVersionA.csv,"Read Pure U A","Read Pure U A",PUFF,NUMBER,Study2,U,171,78,Test,User,-,,Recall,Recall2,2832,number,100,1780,2676,1,1,,1
m20301553,5gkch5i0g1,Nick_Dissertation_EX2_EP_MSU_TEXAS,1,173,2022-11-10T18:42:24+00:00,14.402079105377,5,Pure_Unrelated.csv,READVersionA.csv,"Read Pure U A","Read Pure U A",BRONZE,ARTERY,Study2,U,104,62,Test,User,-,,Recall,Recall2,13881,,0,-1,-1,0,0,,1
m20301553,5gkch5i0g1,Nick_Dissertation_EX2_EP_MSU_TEXAS,1,174,2022-11-10T18:42:26+00:00,1.4603769779205,5,Pure_Unrelated.csv,READVersionA.csv,"Read Pure U A","Read Pure U A",SMOOTH,OMIT,Study2,U,157,79,Test,User,-,,Recall,Recall2,1239,,0,-1,-1,0,0,,1
m20301553,5gkch5i0g1,Nick_Dissertation_EX2_EP_MSU_TEXAS,1,175,2022-11-10T18:42:32+00:00,6.64368891716,5,Pure_Unrelated.csv,READVersionA.csv,"Read Pure U A","Read Pure U A",DESIRE,NOISE,Study2,U,169,80,Test,User,-,,Recall,Recall2,6440,,0,-1,-1,0,0,,1
m20301553,5gkch5i0g1,Nick_Dissertation_EX2_EP_MSU_TEXAS,1,176,2022-11-10T18:42:35+00:00,2.6250860691071,5,Pure_Unrelated.csv,READVersionA.csv,"Read Pure U A","Read Pure U A",HUNGRY,PARK,Study2,U,98,75,Test,User,-,,Recall,Recall2,2410,,0,-1,-1,0,0,,1
m20301553,5gkch5i0g1,Nick_Dissertation_EX2_EP_MSU_TEXAS,1,177,2022-11-10T18:42:38+00:00,2.8883399963379,5,Pure_Unrelated.csv,READVersionA.csv,"Read Pure U A","Read Pure U A",JELLY,NAUGHTY,Study2,U,172,95,Test,User,-,,Recall,Recall2,2682,naughty,100,1723,2500,1,1,,1
m20301553,5gkch5i0g1,Nick_Dissertation_EX2_EP_MSU_TEXAS,1,178,2022-11-10T18:42:41+00:00,2.9187700748444,5,Pure_Unrelated.csv,READVersionA.csv,"Read Pure U A","Read Pure U A",STOMACH,TOWN,Study2,U,159,67,Test,User,-,,Recall,Recall2,2699,down,75,2154,2416,0,1,,1
m20301553,5gkch5i0g1,Nick_Dissertation_EX2_EP_MSU_TEXAS,1,179,2022-11-10T18:42:44+00:00,3.3979208469391,5,Pure_Unrelated.csv,READVersionA.csv,"Read Pure U A","Read Pure U A",LAKE,OPINION,Study2,U,160,68,Test,User,-,,Recall,Recall2,3196,opinion,100,1898,2952,1,1,,1
m20301553,5gkch5i0g1,Nick_Dissertation_EX2_EP_MSU_TEXAS,1,180,2022-11-10T18:42:47+00:00,3.2977230548859,5,Pure_Unrelated.csv,READVersionA.csv,"Read Pure U A","Read Pure U A",MUTE,WAVE,Study2,U,173,96,Test,User,-,,Recall,Recall2,3083,wave,100,2355,2882,1,1,,1
m20301553,5gkch5i0g1,Nick_Dissertation_EX2_EP_MSU_TEXAS,1,181,2022-11-10T18:42:51+00:00,3.2901110649109,5,Pure_Unrelated.csv,READVersionA.csv,"Read Pure U A","Read Pure U A",ADD,VALLEY,Study2,U,112,59,Test,User,-,,Recall,Recall2,3085,spice,18.181818181818,2479,3019,0,0,,1
m20301553,5gkch5i0g1,Nick_Dissertation_EX2_EP_MSU_TEXAS,1,182,2022-11-10T18:42:52+00:00,1.4063189029694,5,Pure_Unrelated.csv,READVersionA.csv,"Read Pure U A","Read Pure U A",GUARD,WHEEL,Study2,U,170,76,Test,User,-,,Recall,Recall2,1202,,0,-1,-1,0,0,,1
m20301553,5gkch5i0g1,Nick_Dissertation_EX2_EP_MSU_TEXAS,1,183,2022-11-10T18:42:53+00:00,0.92631816864014,5,Pure_Unrelated.csv,READVersionA.csv,"Read Pure U A","Read Pure U A",RIDDLE,SUGAR,Study2,U,111,66,Test,User,-,,Recall,Recall2,729,,0,-1,-1,0,0,,1
m20301553,5gkch5i0g1,Nick_Dissertation_EX2_EP_MSU_TEXAS,1,184,2022-11-10T18:42:56+00:00,2.6507399082184,5,Pure_Unrelated.csv,READVersionA.csv,"Read Pure U A","Read Pure U A",FLOOR,DISCOVER,Study2,U,101,91,Test,User,-,,Recall,Recall2,2437,,0,-1,-1,0,0,,1
m20301553,5gkch5i0g1,Nick_Dissertation_EX2_EP_MSU_TEXAS,1,185,2022-11-10T18:43:01+00:00,5.8176028728485,5,Pure_Unrelated.csv,READVersionA.csv,"Read Pure U A","Read Pure U A",ADD,VALLEY,Study2,U,112,59,Test,User,-,,Recall,Recall2,5601,,0,-1,-1,0,0,,1
m20301553,5gkch5i0g1,Nick_Dissertation_EX2_EP_MSU_TEXAS,1,186,2022-11-10T18:43:02+00:00,0.90995907783508,5,Pure_Unrelated.csv,READVersionA.csv,"Read Pure U A","Read Pure U A",FLOAT,HARMONY,Study2,U,161,87,Test,User,-,,Recall,Recall2,697,,0,-1,-1,0,0,,1
m20301553,5gkch5i0g1,Nick_Dissertation_EX2_EP_MSU_TEXAS,1,187,2022-11-10T18:43:04+00:00,1.3530220985413,5,Pure_Unrelated.csv,READVersionA.csv,"Read Pure U A","Read Pure U A",TUCK,ALLOW,Study2,U,108,63,Test,User,-,,Recall,Recall2,1149,,0,-1,-1,0,0,,1
m20301553,5gkch5i0g1,Nick_Dissertation_EX2_EP_MSU_TEXAS,1,188,2022-11-10T18:43:05+00:00,1.568235874176,5,Pure_Unrelated.csv,READVersionA.csv,"Read Pure U A","Read Pure U A",WOMAN,LIFT,Study2,U,99,92,Test,User,-,,Recall,Recall2,1358,,0,-1,-1,0,0,,1
m20301553,5gkch5i0g1,Nick_Dissertation_EX2_EP_MSU_TEXAS,1,189,2022-11-10T18:43:07+00:00,1.7876391410828,5,Pure_Unrelated.csv,READVersionA.csv,"Read Pure U A","Read Pure U A",,,,,,0,Instruct,User,-,"You have completed this section. Please press Enter.",,Instruct7,1575,,,-1,-1,,,,1
m20301553,5gkch5i0g1,Nick_Dissertation_EX2_EP_MSU_TEXAS,1,190,2022-11-10T18:43:11+00:00,4.0055079460144,5,Pure_Unrelated.csv,READVersionA.csv,"Read Pure U A","Read Pure U A",,,,,,0,Instruct,User,-,"The following screen will ask you a few questions abour your experience today. You must complete these questions to receive credit.",,Instruct8,3801,,,-1,-1,,,,1
