Username,ID,ExperimentName,Session,Trial,Date,TimeDif,"Condition Number","Stimuli File","Order File","Condition Description","Condition Notes",Stimuli*Cue,Stimuli*Answer,Stimuli*Shuffle,"Stimuli*Stimuli Notes",Stimuli*Value,Procedure*Item,"Procedure*Trial Type","Procedure*Max Time","Procedure*Min Time",Procedure*Text,"Procedure*Procedure Notes",Procedure*Shuffle,Response*RT,Response*Response,Response*Accuracy,Response*RTfirst,Response*RTlast,Response*strictAcc,Response*lenientAcc,Response*focus,Response*Focus
w10085119,r9ohlqh0jn,Nick_Dissertation_EX2_EP,1,1,2022-05-03T18:35:59+00:00,12.497759103775,3,Pure_Forward.csv,READVersionA.csv,"Read Pure F A","Read Pure F A",,,,,,0,Instruct,-,10,"Please study each of the following word pairs. Remember that your memory will be tested! Each pair will be displayed on the computer screen and will automatically advance to the next pair. Press ENTER when you are ready to begin.",Initial_Instruct,Instruct1,12396,,,-1,-1,,,,1
w10085119,r9ohlqh0jn,Nick_Dissertation_EX2_EP,1,2,2022-05-03T18:36:07+00:00,8.1494510173798,3,Pure_Forward.csv,READVersionA.csv,"Read Pure F A","Read Pure F A",SPACE,JAM,BUFFER1,Buffer,5,3,STUDY,8,8,,Study/JOL,BUFFER,8002,,,-1,-1,,,,1
w10085119,r9ohlqh0jn,Nick_Dissertation_EX2_EP,1,3,2022-05-03T18:36:16+00:00,8.1491649150848,3,Pure_Forward.csv,READVersionA.csv,"Read Pure F A","Read Pure F A",TREES,GREEN,BUFFER1,Buffer,1,4,STUDY,8,8,,Study/JOL,BUFFER,8001,,,-1,-1,,,,1
w10085119,r9ohlqh0jn,Nick_Dissertation_EX2_EP,1,4,2022-05-03T18:36:24+00:00,8.1618900299072,3,Pure_Forward.csv,READVersionA.csv,"Read Pure F A","Read Pure F A",BASEBALL,CATCHER,BUFFER1,Buffer,2,6,STUDY,8,8,,Study/JOL,BUFFER,8001,,,-1,-1,,,,1
w10085119,r9ohlqh0jn,Nick_Dissertation_EX2_EP,1,5,2022-05-03T18:36:32+00:00,8.1433238983154,3,Pure_Forward.csv,READVersionA.csv,"Read Pure F A","Read Pure F A",PEANUT,BUTTER,BUFFER1,Buffer,3,5,STUDY,8,8,,Study/JOL,BUFFER,8004,,,-1,-1,,,,1
w10085119,r9ohlqh0jn,Nick_Dissertation_EX2_EP,1,6,2022-05-03T18:36:40+00:00,8.1424970626831,3,Pure_Forward.csv,READVersionA.csv,"Read Pure F A","Read Pure F A",SCARE,HIDE,BUFFER1,Buffer,4,2,STUDY,8,8,,Study/JOL,BUFFER,8001,,,-1,-1,,,,1
w10085119,r9ohlqh0jn,Nick_Dissertation_EX2_EP,1,7,2022-05-03T18:36:48+00:00,8.1463620662689,3,Pure_Forward.csv,READVersionA.csv,"Read Pure F A","Read Pure F A",NAP,SLEEP,Study1,F,84,45,STUDY,8,8,,Study/JOL,"Study Phase",8002,,,-1,-1,,,,1
w10085119,r9ohlqh0jn,Nick_Dissertation_EX2_EP,1,8,2022-05-03T18:36:56+00:00,8.148463010788,3,Pure_Forward.csv,READVersionA.csv,"Read Pure F A","Read Pure F A",LEAGUE,BASEBALL,Study1,F,81,29,STUDY,8,8,,Study/JOL,"Study Phase",8001,,,-1,-1,,,,1
w10085119,r9ohlqh0jn,Nick_Dissertation_EX2_EP,1,9,2022-05-03T18:37:04+00:00,8.1505260467529,3,Pure_Forward.csv,READVersionA.csv,"Read Pure F A","Read Pure F A",SWAN,BIRD,Study1,F,14,37,STUDY,8,8,,Study/JOL,"Study Phase",8003,,,-1,-1,,,,1
w10085119,r9ohlqh0jn,Nick_Dissertation_EX2_EP,1,10,2022-05-03T18:37:13+00:00,8.1430969238281,3,Pure_Forward.csv,READVersionA.csv,"Read Pure F A","Read Pure F A",SARDINE,FISH,Study1,F,80,46,STUDY,8,8,,Study/JOL,"Study Phase",8001,,,-1,-1,,,,1
w10085119,r9ohlqh0jn,Nick_Dissertation_EX2_EP,1,11,2022-05-03T18:37:21+00:00,8.1438419818878,3,Pure_Forward.csv,READVersionA.csv,"Read Pure F A","Read Pure F A",WAY,OUT,Study1,F,16,18,STUDY,8,8,,Study/JOL,"Study Phase",8001,,,-1,-1,,,,1
w10085119,r9ohlqh0jn,Nick_Dissertation_EX2_EP,1,12,2022-05-03T18:37:29+00:00,8.1565718650818,3,Pure_Forward.csv,READVersionA.csv,"Read Pure F A","Read Pure F A",DELINQUENT,BAD,Study1,F,6,23,STUDY,8,8,,Study/JOL,"Study Phase",8001,,,-1,-1,,,,1
w10085119,r9ohlqh0jn,Nick_Dissertation_EX2_EP,1,13,2022-05-03T18:37:37+00:00,8.1379220485687,3,Pure_Forward.csv,READVersionA.csv,"Read Pure F A","Read Pure F A",DISCUSSION,TALK,Study1,F,21,30,STUDY,8,8,,Study/JOL,"Study Phase",8002,,,-1,-1,,,,1
w10085119,r9ohlqh0jn,Nick_Dissertation_EX2_EP,1,14,2022-05-03T18:37:45+00:00,8.1401941776276,3,Pure_Forward.csv,READVersionA.csv,"Read Pure F A","Read Pure F A",STRAWBERRY,FRUIT,Study1,F,74,22,STUDY,8,8,,Study/JOL,"Study Phase",8000,,,-1,-1,,,,1
w10085119,r9ohlqh0jn,Nick_Dissertation_EX2_EP,1,15,2022-05-03T18:37:53+00:00,8.1395089626312,3,Pure_Forward.csv,READVersionA.csv,"Read Pure F A","Read Pure F A",ACTRESS,STAR,Study1,F,70,36,STUDY,8,8,,Study/JOL,"Study Phase",8003,,,-1,-1,,,,1
w10085119,r9ohlqh0jn,Nick_Dissertation_EX2_EP,1,16,2022-05-03T18:38:02+00:00,8.1450958251953,3,Pure_Forward.csv,READVersionA.csv,"Read Pure F A","Read Pure F A",BALLOON,POP,Study1,F,73,44,STUDY,8,8,,Study/JOL,"Study Phase",8003,,,-1,-1,,,,1
w10085119,r9ohlqh0jn,Nick_Dissertation_EX2_EP,1,17,2022-05-03T18:38:10+00:00,8.1399781703949,3,Pure_Forward.csv,READVersionA.csv,"Read Pure F A","Read Pure F A",WAGE,MONEY,Study1,F,8,34,STUDY,8,8,,Study/JOL,"Study Phase",8000,,,-1,-1,,,,1
w10085119,r9ohlqh0jn,Nick_Dissertation_EX2_EP,1,18,2022-05-03T18:38:18+00:00,8.1383528709412,3,Pure_Forward.csv,READVersionA.csv,"Read Pure F A","Read Pure F A",ORCHID,FLOWER,Study1,F,24,7,STUDY,8,8,,Study/JOL,"Study Phase",8001,,,-1,-1,,,,1
w10085119,r9ohlqh0jn,Nick_Dissertation_EX2_EP,1,19,2022-05-03T18:38:26+00:00,8.1397819519043,3,Pure_Forward.csv,READVersionA.csv,"Read Pure F A","Read Pure F A",REVOLUTION,WAR,Study1,F,20,32,STUDY,8,8,,Study/JOL,"Study Phase",8002,,,-1,-1,,,,1
w10085119,r9ohlqh0jn,Nick_Dissertation_EX2_EP,1,20,2022-05-03T18:38:34+00:00,8.1414971351624,3,Pure_Forward.csv,READVersionA.csv,"Read Pure F A","Read Pure F A",BITTER,COLD,Study1,F,12,14,STUDY,8,8,,Study/JOL,"Study Phase",8001,,,-1,-1,,,,1
w10085119,r9ohlqh0jn,Nick_Dissertation_EX2_EP,1,21,2022-05-03T18:38:42+00:00,8.1463758945465,3,Pure_Forward.csv,READVersionA.csv,"Read Pure F A","Read Pure F A",DIGESTION,STOMACH,Study1,F,7,31,STUDY,8,8,,Study/JOL,"Study Phase",8002,,,-1,-1,,,,1
w10085119,r9ohlqh0jn,Nick_Dissertation_EX2_EP,1,22,2022-05-03T18:38:50+00:00,8.1540060043335,3,Pure_Forward.csv,READVersionA.csv,"Read Pure F A","Read Pure F A",AIRCRAFT,PLANE,Study1,F,79,39,STUDY,8,8,,Study/JOL,"Study Phase",8001,,,-1,-1,,,,1
w10085119,r9ohlqh0jn,Nick_Dissertation_EX2_EP,1,23,2022-05-03T18:38:59+00:00,8.1371209621429,3,Pure_Forward.csv,READVersionA.csv,"Read Pure F A","Read Pure F A",GEOLOGY,ROCK,Study1,F,19,42,STUDY,8,8,,Study/JOL,"Study Phase",8002,,,-1,-1,,,,1
w10085119,r9ohlqh0jn,Nick_Dissertation_EX2_EP,1,24,2022-05-03T18:39:07+00:00,8.4333260059357,3,Pure_Forward.csv,READVersionA.csv,"Read Pure F A","Read Pure F A",WINDSHIELD,CAR,Study1,F,67,9,STUDY,8,8,,Study/JOL,"Study Phase",8001,,,-1,-1,,,,1
w10085119,r9ohlqh0jn,Nick_Dissertation_EX2_EP,1,25,2022-05-03T18:39:15+00:00,8.1965720653534,3,Pure_Forward.csv,READVersionA.csv,"Read Pure F A","Read Pure F A",EDITOR,NEWS,Study1,F,10,33,STUDY,8,8,,Study/JOL,"Study Phase",8000,,,-1,-1,,,,1
w10085119,r9ohlqh0jn,Nick_Dissertation_EX2_EP,1,26,2022-05-03T18:39:23+00:00,8.1431081295013,3,Pure_Forward.csv,READVersionA.csv,"Read Pure F A","Read Pure F A",HERD,COW,Study1,F,22,24,STUDY,8,8,,Study/JOL,"Study Phase",8001,,,-1,-1,,,,1
w10085119,r9ohlqh0jn,Nick_Dissertation_EX2_EP,1,27,2022-05-03T18:39:31+00:00,8.1322629451752,3,Pure_Forward.csv,READVersionA.csv,"Read Pure F A","Read Pure F A",COFFIN,DEAD,Study1,F,78,12,STUDY,8,8,,Study/JOL,"Study Phase",8000,,,-1,-1,,,,1
w10085119,r9ohlqh0jn,Nick_Dissertation_EX2_EP,1,28,2022-05-03T18:39:41+00:00,9.2431149482727,3,Pure_Forward.csv,READVersionA.csv,"Read Pure F A","Read Pure F A",HYGIENE,CLEAN,Study1,F,17,38,STUDY,8,8,,Study/JOL,"Study Phase",8002,,,-1,-1,,,,1
w10085119,r9ohlqh0jn,Nick_Dissertation_EX2_EP,1,29,2022-05-03T18:39:49+00:00,8.1699481010437,3,Pure_Forward.csv,READVersionA.csv,"Read Pure F A","Read Pure F A",ROOT,PLANT,Study1,F,13,40,STUDY,8,8,,Study/JOL,"Study Phase",8001,,,-1,-1,,,,1
w10085119,r9ohlqh0jn,Nick_Dissertation_EX2_EP,1,30,2022-05-03T18:39:57+00:00,8.1415948867798,3,Pure_Forward.csv,READVersionA.csv,"Read Pure F A","Read Pure F A",TRUTHFUL,HONEST,Study1,F,83,35,STUDY,8,8,,Study/JOL,"Study Phase",8000,,,-1,-1,,,,1
w10085119,r9ohlqh0jn,Nick_Dissertation_EX2_EP,1,31,2022-05-03T18:40:05+00:00,8.1411740779877,3,Pure_Forward.csv,READVersionA.csv,"Read Pure F A","Read Pure F A",CREDIT,CARD,Study1,F,23,28,STUDY,8,8,,Study/JOL,"Study Phase",8001,,,-1,-1,,,,1
w10085119,r9ohlqh0jn,Nick_Dissertation_EX2_EP,1,32,2022-05-03T18:40:13+00:00,8.1499099731445,3,Pure_Forward.csv,READVersionA.csv,"Read Pure F A","Read Pure F A",PAW,DOG,Study1,F,15,10,STUDY,8,8,,Study/JOL,"Study Phase",8001,,,-1,-1,,,,1
w10085119,r9ohlqh0jn,Nick_Dissertation_EX2_EP,1,33,2022-05-03T18:40:21+00:00,8.1423699855804,3,Pure_Forward.csv,READVersionA.csv,"Read Pure F A","Read Pure F A",REVENGE,EVEN,Study1,F,72,13,STUDY,8,8,,Study/JOL,"Study Phase",8002,,,-1,-1,,,,1
w10085119,r9ohlqh0jn,Nick_Dissertation_EX2_EP,1,34,2022-05-03T18:40:30+00:00,8.1439418792725,3,Pure_Forward.csv,READVersionA.csv,"Read Pure F A","Read Pure F A",PANTHER,CAT,Study1,F,76,17,STUDY,8,8,,Study/JOL,"Study Phase",8002,,,-1,-1,,,,1
w10085119,r9ohlqh0jn,Nick_Dissertation_EX2_EP,1,35,2022-05-03T18:40:38+00:00,8.1454191207886,3,Pure_Forward.csv,READVersionA.csv,"Read Pure F A","Read Pure F A",BRIDGE,WATER,Study1,F,18,26,STUDY,8,8,,Study/JOL,"Study Phase",8001,,,-1,-1,,,,1
w10085119,r9ohlqh0jn,Nick_Dissertation_EX2_EP,1,36,2022-05-03T18:40:46+00:00,8.1474659442902,3,Pure_Forward.csv,READVersionA.csv,"Read Pure F A","Read Pure F A",BANKER,MONEY,Study1,F,82,20,STUDY,8,8,,Study/JOL,"Study Phase",8000,,,-1,-1,,,,1
w10085119,r9ohlqh0jn,Nick_Dissertation_EX2_EP,1,37,2022-05-03T18:40:54+00:00,8.1394131183624,3,Pure_Forward.csv,READVersionA.csv,"Read Pure F A","Read Pure F A",BRAWL,FIGHT,Study1,F,85,25,STUDY,8,8,,Study/JOL,"Study Phase",8001,,,-1,-1,,,,1
w10085119,r9ohlqh0jn,Nick_Dissertation_EX2_EP,1,38,2022-05-03T18:41:02+00:00,8.1373538970947,3,Pure_Forward.csv,READVersionA.csv,"Read Pure F A","Read Pure F A",HORNET,STING,Study1,F,11,11,STUDY,8,8,,Study/JOL,"Study Phase",8001,,,-1,-1,,,,1
w10085119,r9ohlqh0jn,Nick_Dissertation_EX2_EP,1,39,2022-05-03T18:41:10+00:00,8.1426620483398,3,Pure_Forward.csv,READVersionA.csv,"Read Pure F A","Read Pure F A",PENGUIN,BIRD,Study1,F,69,43,STUDY,8,8,,Study/JOL,"Study Phase",8003,,,-1,-1,,,,1
w10085119,r9ohlqh0jn,Nick_Dissertation_EX2_EP,1,40,2022-05-03T18:41:18+00:00,8.1608180999756,3,Pure_Forward.csv,READVersionA.csv,"Read Pure F A","Read Pure F A",TUNA,FISH,Study1,F,25,15,STUDY,8,8,,Study/JOL,"Study Phase",8002,,,-1,-1,,,,1
w10085119,r9ohlqh0jn,Nick_Dissertation_EX2_EP,1,41,2022-05-03T18:41:27+00:00,8.1441547870636,3,Pure_Forward.csv,READVersionA.csv,"Read Pure F A","Read Pure F A",FAVORITE,BEST,Study1,F,75,16,STUDY,8,8,,Study/JOL,"Study Phase",8001,,,-1,-1,,,,1
w10085119,r9ohlqh0jn,Nick_Dissertation_EX2_EP,1,42,2022-05-03T18:41:35+00:00,8.1464030742645,3,Pure_Forward.csv,READVersionA.csv,"Read Pure F A","Read Pure F A",VILLAIN,BAD,Study1,F,68,21,STUDY,8,8,,Study/JOL,"Study Phase",8002,,,-1,-1,,,,1
w10085119,r9ohlqh0jn,Nick_Dissertation_EX2_EP,1,43,2022-05-03T18:41:43+00:00,8.1545169353485,3,Pure_Forward.csv,READVersionA.csv,"Read Pure F A","Read Pure F A",THIMBLE,THREAD,Study1,F,71,8,STUDY,8,8,,Study/JOL,"Study Phase",8002,,,-1,-1,,,,1
w10085119,r9ohlqh0jn,Nick_Dissertation_EX2_EP,1,44,2022-05-03T18:41:51+00:00,8.1483800411224,3,Pure_Forward.csv,READVersionA.csv,"Read Pure F A","Read Pure F A",FLIP,TURN,Study1,F,66,19,STUDY,8,8,,Study/JOL,"Study Phase",8000,,,-1,-1,,,,1
w10085119,r9ohlqh0jn,Nick_Dissertation_EX2_EP,1,45,2022-05-03T18:41:59+00:00,8.1481511592865,3,Pure_Forward.csv,READVersionA.csv,"Read Pure F A","Read Pure F A",CHISEL,HAMMER,Study1,F,9,27,STUDY,8,8,,Study/JOL,"Study Phase",8003,,,-1,-1,,,,1
w10085119,r9ohlqh0jn,Nick_Dissertation_EX2_EP,1,46,2022-05-03T18:42:07+00:00,8.1407108306885,3,Pure_Forward.csv,READVersionA.csv,"Read Pure F A","Read Pure F A",BREAKABLE,GLASS,Study1,F,77,41,STUDY,8,8,,Study/JOL,"Study Phase",8000,,,-1,-1,,,,1
w10085119,r9ohlqh0jn,Nick_Dissertation_EX2_EP,1,47,2022-05-03T18:42:15+00:00,8.1425099372864,3,Pure_Forward.csv,READVersionA.csv,"Read Pure F A","Read Pure F A",MALT,CHOCOLATE,BUFFER2,Buffer,88,47,STUDY,8,8,,Study/JOL,BUFFER2,8002,,,-1,-1,,,,1
w10085119,r9ohlqh0jn,Nick_Dissertation_EX2_EP,1,48,2022-05-03T18:42:24+00:00,8.1481521129608,3,Pure_Forward.csv,READVersionA.csv,"Read Pure F A","Read Pure F A",SHERRIF,POLICE,BUFFER2,Buffer,87,49,STUDY,8,8,,Study/JOL,BUFFER2,8002,,,-1,-1,,,,1
w10085119,r9ohlqh0jn,Nick_Dissertation_EX2_EP,1,49,2022-05-03T18:42:32+00:00,8.1400389671326,3,Pure_Forward.csv,READVersionA.csv,"Read Pure F A","Read Pure F A",MOON,SPACE,BUFFER2,Buffer,89,50,STUDY,8,8,,Study/JOL,BUFFER2,8001,,,-1,-1,,,,1
w10085119,r9ohlqh0jn,Nick_Dissertation_EX2_EP,1,50,2022-05-03T18:42:40+00:00,8.1445710659027,3,Pure_Forward.csv,READVersionA.csv,"Read Pure F A","Read Pure F A",THING,STUFF,BUFFER2,Buffer,90,48,STUDY,8,8,,Study/JOL,BUFFER2,8003,,,-1,-1,,,,1
w10085119,r9ohlqh0jn,Nick_Dissertation_EX2_EP,1,51,2022-05-03T18:42:48+00:00,8.1408979892731,3,Pure_Forward.csv,READVersionA.csv,"Read Pure F A","Read Pure F A",GEESE,GOOSE,BUFFER2,Buffer,86,51,STUDY,8,8,,Study/JOL,BUFFER2,8000,,,-1,-1,,,,1
w10085119,r9ohlqh0jn,Nick_Dissertation_EX2_EP,1,52,2022-05-03T18:42:50+00:00,2.3395400047302,3,Pure_Forward.csv,READVersionA.csv,"Read Pure F A","Read Pure F A",,,,,,0,Instruct,User,-,"You have completed this section. Please press Enter.",Filler_Instruction,Instruct2,2199,,,-1,-1,,,,1
w10085119,r9ohlqh0jn,Nick_Dissertation_EX2_EP,1,53,2022-05-03T18:44:52+00:00,121.35009098053,3,Pure_Forward.csv,READVersionA.csv,"Read Pure F A","Read Pure F A",,,,,,0,FreeRecall,120,120,"Please list the 50 US states in alphabetical order. The task will automatically advance to the next screen after two minutes.",,Filler1,120002,"Alabama arkansas connecticut california carolina georgia kansas louisiana mississippi tennessee texas utah washington ",0,6532,113854,0,0,,1
w10085119,r9ohlqh0jn,Nick_Dissertation_EX2_EP,1,54,2022-05-03T18:45:06+00:00,14.216350078583,3,Pure_Forward.csv,READVersionA.csv,"Read Pure F A","Read Pure F A",,,,,,0,Instruct,-,10,"You will now be presented with the first word from each of the previously studied item pairs. Please type the missing word. If you do not know the word, you may guess or press Enter to skip forward to the next pair.",,Instruct3,13988,,,-1,-1,,,,1
w10085119,r9ohlqh0jn,Nick_Dissertation_EX2_EP,1,55,2022-05-03T18:45:09+00:00,2.825003862381,3,Pure_Forward.csv,READVersionA.csv,"Read Pure F A","Read Pure F A",DELINQUENT,BAD,Study1,F,6,23,Test,User,-,,Recall,Recall1,2656,bad,100,1259,2463,1,1,,1
w10085119,r9ohlqh0jn,Nick_Dissertation_EX2_EP,1,56,2022-05-03T18:45:12+00:00,3.6113891601562,3,Pure_Forward.csv,READVersionA.csv,"Read Pure F A","Read Pure F A",COFFIN,DEAD,Study1,F,78,12,Test,User,-,,Recall,Recall1,3470,"dead ",100,1508,3238,1,1,,1
w10085119,r9ohlqh0jn,Nick_Dissertation_EX2_EP,1,57,2022-05-03T18:45:15+00:00,2.9932680130005,3,Pure_Forward.csv,READVersionA.csv,"Read Pure F A","Read Pure F A",FLIP,TURN,Study1,F,66,19,Test,User,-,,Recall,Recall1,2792,"coin ",25,1553,2663,0,0,,1
w10085119,r9ohlqh0jn,Nick_Dissertation_EX2_EP,1,58,2022-05-03T18:45:17+00:00,2.098769903183,3,Pure_Forward.csv,READVersionA.csv,"Read Pure F A","Read Pure F A",TRUTHFUL,HONEST,Study1,F,83,35,Test,User,-,,Recall,Recall1,1909,,0,-1,-1,0,0,,1
w10085119,r9ohlqh0jn,Nick_Dissertation_EX2_EP,1,59,2022-05-03T18:45:21+00:00,3.5414509773254,3,Pure_Forward.csv,READVersionA.csv,"Read Pure F A","Read Pure F A",BREAKABLE,GLASS,Study1,F,77,41,Test,User,-,,Recall,Recall1,3333,glass,100,1393,3148,1,1,,1
w10085119,r9ohlqh0jn,Nick_Dissertation_EX2_EP,1,60,2022-05-03T18:45:23+00:00,2.2069990634918,3,Pure_Forward.csv,READVersionA.csv,"Read Pure F A","Read Pure F A",HORNET,STING,Study1,F,11,11,Test,User,-,,Recall,Recall1,2009,"sting ",100,1203,1794,1,1,,1
w10085119,r9ohlqh0jn,Nick_Dissertation_EX2_EP,1,61,2022-05-03T18:45:25+00:00,1.312196969986,3,Pure_Forward.csv,READVersionA.csv,"Read Pure F A","Read Pure F A",FAVORITE,BEST,Study1,F,75,16,Test,User,-,,Recall,Recall1,1173,,0,-1,-1,0,0,,1
w10085119,r9ohlqh0jn,Nick_Dissertation_EX2_EP,1,62,2022-05-03T18:45:27+00:00,2.4677419662476,3,Pure_Forward.csv,READVersionA.csv,"Read Pure F A","Read Pure F A",LEAGUE,BASEBALL,Study1,F,81,29,Test,User,-,,Recall,Recall1,2327,"baseball ",100,1149,2226,1,1,,1
w10085119,r9ohlqh0jn,Nick_Dissertation_EX2_EP,1,63,2022-05-03T18:45:29+00:00,1.5488600730896,3,Pure_Forward.csv,READVersionA.csv,"Read Pure F A","Read Pure F A",HERD,COW,Study1,F,22,24,Test,User,-,,Recall,Recall1,1398," ",0,1198,1198,0,0,,1
w10085119,r9ohlqh0jn,Nick_Dissertation_EX2_EP,1,64,2022-05-03T18:45:31+00:00,2.0301909446716,3,Pure_Forward.csv,READVersionA.csv,"Read Pure F A","Read Pure F A",DISCUSSION,TALK,Study1,F,21,30,Test,User,-,,Recall,Recall1,1893,"talk ",100,1095,1780,1,1,,1
w10085119,r9ohlqh0jn,Nick_Dissertation_EX2_EP,1,65,2022-05-03T18:45:32+00:00,1.5000920295715,3,Pure_Forward.csv,READVersionA.csv,"Read Pure F A","Read Pure F A",PANTHER,CAT,Study1,F,76,17,Test,User,-,,Recall,Recall1,1376,,0,-1,-1,0,0,,1
w10085119,r9ohlqh0jn,Nick_Dissertation_EX2_EP,1,66,2022-05-03T18:45:35+00:00,2.8930840492249,3,Pure_Forward.csv,READVersionA.csv,"Read Pure F A","Read Pure F A",HYGIENE,CLEAN,Study1,F,17,38,Test,User,-,,Recall,Recall1,2750,"clean ",100,1101,2592,1,1,,1
w10085119,r9ohlqh0jn,Nick_Dissertation_EX2_EP,1,67,2022-05-03T18:45:37+00:00,2.4792850017548,3,Pure_Forward.csv,READVersionA.csv,"Read Pure F A","Read Pure F A",THIMBLE,THREAD,Study1,F,71,8,Test,User,-,,Recall,Recall1,2346,"thread ",100,1495,2257,1,1,,1
w10085119,r9ohlqh0jn,Nick_Dissertation_EX2_EP,1,68,2022-05-03T18:45:39+00:00,1.9607589244843,3,Pure_Forward.csv,READVersionA.csv,"Read Pure F A","Read Pure F A",CREDIT,CARD,Study1,F,23,28,Test,User,-,,Recall,Recall1,1808,card,100,1147,1653,1,1,,1
w10085119,r9ohlqh0jn,Nick_Dissertation_EX2_EP,1,69,2022-05-03T18:45:42+00:00,2.5313758850098,3,Pure_Forward.csv,READVersionA.csv,"Read Pure F A","Read Pure F A",ACTRESS,STAR,Study1,F,70,36,Test,User,-,,Recall,Recall1,2389,"movie ",0,1669,2271,0,0,,1
w10085119,r9ohlqh0jn,Nick_Dissertation_EX2_EP,1,70,2022-05-03T18:45:44+00:00,2.2971770763397,3,Pure_Forward.csv,READVersionA.csv,"Read Pure F A","Read Pure F A",BITTER,COLD,Study1,F,12,14,Test,User,-,,Recall,Recall1,2163,,0,-1,-1,0,0,,1
w10085119,r9ohlqh0jn,Nick_Dissertation_EX2_EP,1,71,2022-05-03T18:45:46+00:00,1.5896039009094,3,Pure_Forward.csv,READVersionA.csv,"Read Pure F A","Read Pure F A",BALLOON,POP,Study1,F,73,44,Test,User,-,,Recall,Recall1,1449,pop,100,947,1286,1,1,,1
w10085119,r9ohlqh0jn,Nick_Dissertation_EX2_EP,1,72,2022-05-03T18:45:47+00:00,1.182599067688,3,Pure_Forward.csv,READVersionA.csv,"Read Pure F A","Read Pure F A",AIRCRAFT,PLANE,Study1,F,79,39,Test,User,-,,Recall,Recall1,1046,,0,-1,-1,0,0,,1
w10085119,r9ohlqh0jn,Nick_Dissertation_EX2_EP,1,73,2022-05-03T18:45:48+00:00,1.1102311611176,3,Pure_Forward.csv,READVersionA.csv,"Read Pure F A","Read Pure F A",WAGE,MONEY,Study1,F,8,34,Test,User,-,,Recall,Recall1,973,,0,-1,-1,0,0,,1
w10085119,r9ohlqh0jn,Nick_Dissertation_EX2_EP,1,74,2022-05-03T18:45:53+00:00,5.348296880722,3,Pure_Forward.csv,READVersionA.csv,"Read Pure F A","Read Pure F A",STRAWBERRY,FRUIT,Study1,F,74,22,Test,User,-,,Recall,Recall1,5211,"fruit ",100,3932,5127,1,1,,1
w10085119,r9ohlqh0jn,Nick_Dissertation_EX2_EP,1,75,2022-05-03T18:45:57+00:00,3.963014125824,3,Pure_Forward.csv,READVersionA.csv,"Read Pure F A","Read Pure F A",SARDINE,FISH,Study1,F,80,46,Test,User,-,,Recall,Recall1,3822,"fish ",100,1056,3681,1,1,,1
w10085119,r9ohlqh0jn,Nick_Dissertation_EX2_EP,1,76,2022-05-03T18:45:59+00:00,1.1319108009338,3,Pure_Forward.csv,READVersionA.csv,"Read Pure F A","Read Pure F A",WAY,OUT,Study1,F,16,18,Test,User,-,,Recall,Recall1,990,,0,-1,-1,0,0,,1
w10085119,r9ohlqh0jn,Nick_Dissertation_EX2_EP,1,77,2022-05-03T18:46:01+00:00,2.1218411922455,3,Pure_Forward.csv,READVersionA.csv,"Read Pure F A","Read Pure F A",ORCHID,FLOWER,Study1,F,24,7,Test,User,-,,Recall,Recall1,1993,"flower ",100,969,1866,1,1,,1
w10085119,r9ohlqh0jn,Nick_Dissertation_EX2_EP,1,78,2022-05-03T18:46:02+00:00,1.1285798549652,3,Pure_Forward.csv,READVersionA.csv,"Read Pure F A","Read Pure F A",NAP,SLEEP,Study1,F,84,45,Test,User,-,,Recall,Recall1,993,,0,-1,-1,0,0,,1
w10085119,r9ohlqh0jn,Nick_Dissertation_EX2_EP,1,79,2022-05-03T18:46:04+00:00,2.2198491096497,3,Pure_Forward.csv,READVersionA.csv,"Read Pure F A","Read Pure F A",GEOLOGY,ROCK,Study1,F,19,42,Test,User,-,,Recall,Recall1,2075,"rock ",100,1089,1953,1,1,,1
w10085119,r9ohlqh0jn,Nick_Dissertation_EX2_EP,1,80,2022-05-03T18:46:05+00:00,1.1208689212799,3,Pure_Forward.csv,READVersionA.csv,"Read Pure F A","Read Pure F A",EDITOR,NEWS,Study1,F,10,33,Test,User,-,,Recall,Recall1,1000,,0,-1,-1,0,0,,1
w10085119,r9ohlqh0jn,Nick_Dissertation_EX2_EP,1,81,2022-05-03T18:46:07+00:00,1.6192169189453,3,Pure_Forward.csv,READVersionA.csv,"Read Pure F A","Read Pure F A",DIGESTION,STOMACH,Study1,F,7,31,Test,User,-,,Recall,Recall1,1483,,0,129,129,0,0,,1
w10085119,r9ohlqh0jn,Nick_Dissertation_EX2_EP,1,82,2022-05-03T18:46:08+00:00,1.4562540054321,3,Pure_Forward.csv,READVersionA.csv,"Read Pure F A","Read Pure F A",REVOLUTION,WAR,Study1,F,20,32,Test,User,-,,Recall,Recall1,1315,,0,-1,-1,0,0,,1
w10085119,r9ohlqh0jn,Nick_Dissertation_EX2_EP,1,83,2022-05-03T18:46:11+00:00,2.4363040924072,3,Pure_Forward.csv,READVersionA.csv,"Read Pure F A","Read Pure F A",TUNA,FISH,Study1,F,25,15,Test,User,-,,Recall,Recall1,2306,"fish ",100,1461,2065,1,1,,1
w10085119,r9ohlqh0jn,Nick_Dissertation_EX2_EP,1,84,2022-05-03T18:46:13+00:00,2.2473039627075,3,Pure_Forward.csv,READVersionA.csv,"Read Pure F A","Read Pure F A",ROOT,PLANT,Study1,F,13,40,Test,User,-,,Recall,Recall1,2108,tree,22.222222222222,1470,2012,0,0,,1
w10085119,r9ohlqh0jn,Nick_Dissertation_EX2_EP,1,85,2022-05-03T18:46:15+00:00,2.0781190395355,3,Pure_Forward.csv,READVersionA.csv,"Read Pure F A","Read Pure F A",PENGUIN,BIRD,Study1,F,69,43,Test,User,-,,Recall,Recall1,1937,"bird ",100,1036,1781,1,1,,1
w10085119,r9ohlqh0jn,Nick_Dissertation_EX2_EP,1,86,2022-05-03T18:46:16+00:00,1.1244568824768,3,Pure_Forward.csv,READVersionA.csv,"Read Pure F A","Read Pure F A",CHISEL,HAMMER,Study1,F,9,27,Test,User,-,,Recall,Recall1,992,,0,-1,-1,0,0,,1
w10085119,r9ohlqh0jn,Nick_Dissertation_EX2_EP,1,87,2022-05-03T18:46:17+00:00,0.9173572063446,3,Pure_Forward.csv,READVersionA.csv,"Read Pure F A","Read Pure F A",REVENGE,EVEN,Study1,F,72,13,Test,User,-,,Recall,Recall1,774,,0,-1,-1,0,0,,1
w10085119,r9ohlqh0jn,Nick_Dissertation_EX2_EP,1,88,2022-05-03T18:46:19+00:00,1.6026248931885,3,Pure_Forward.csv,READVersionA.csv,"Read Pure F A","Read Pure F A",VILLAIN,BAD,Study1,F,68,21,Test,User,-,,Recall,Recall1,1464,"bad ",100,938,1332,1,1,,1
w10085119,r9ohlqh0jn,Nick_Dissertation_EX2_EP,1,89,2022-05-03T18:46:20+00:00,1.0125389099121,3,Pure_Forward.csv,READVersionA.csv,"Read Pure F A","Read Pure F A",WINDSHIELD,CAR,Study1,F,67,9,Test,User,-,,Recall,Recall1,879," ",0,760,760,0,0,,1
w10085119,r9ohlqh0jn,Nick_Dissertation_EX2_EP,1,90,2022-05-03T18:46:21+00:00,1.8302240371704,3,Pure_Forward.csv,READVersionA.csv,"Read Pure F A","Read Pure F A",SWAN,BIRD,Study1,F,14,37,Test,User,-,,Recall,Recall1,1692,"bird ",100,1040,1612,1,1,,1
w10085119,r9ohlqh0jn,Nick_Dissertation_EX2_EP,1,91,2022-05-03T18:46:22+00:00,1.0265381336212,3,Pure_Forward.csv,READVersionA.csv,"Read Pure F A","Read Pure F A",BRIDGE,WATER,Study1,F,18,26,Test,User,-,,Recall,Recall1,895,,0,-1,-1,0,0,,1
w10085119,r9ohlqh0jn,Nick_Dissertation_EX2_EP,1,92,2022-05-03T18:46:26+00:00,3.5179848670959,3,Pure_Forward.csv,READVersionA.csv,"Read Pure F A","Read Pure F A",BANKER,MONEY,Study1,F,82,20,Test,User,-,,Recall,Recall1,3388,"cash ",0,1952,3306,0,0,,1
w10085119,r9ohlqh0jn,Nick_Dissertation_EX2_EP,1,93,2022-05-03T18:46:28+00:00,2.2650511264801,3,Pure_Forward.csv,READVersionA.csv,"Read Pure F A","Read Pure F A",PAW,DOG,Study1,F,15,10,Test,User,-,,Recall,Recall1,2121,"dog ",100,1748,1993,1,1,,1
w10085119,r9ohlqh0jn,Nick_Dissertation_EX2_EP,1,94,2022-05-03T18:46:29+00:00,1.0035178661346,3,Pure_Forward.csv,READVersionA.csv,"Read Pure F A","Read Pure F A",BRAWL,FIGHT,Study1,F,85,25,Test,User,-,,Recall,Recall1,873,,0,-1,-1,0,0,,1
w10085119,r9ohlqh0jn,Nick_Dissertation_EX2_EP,1,95,2022-05-03T18:55:44+00:00,554.70282816887,3,Pure_Forward.csv,READVersionA.csv,"Read Pure F A","Read Pure F A",,,,,,0,Instruct,-,10,"You will now be presented with a new set of word pairs. Please study each pair. Remember that your memory will be tested! Each pair will be displayed on the computer screen and will automatically advance to the next pair. Press ENTER when you are ready to begin.",Initial_Instruct,Instruct4,554457,,,-1,-1,,,,0.988
w10085119,r9ohlqh0jn,Nick_Dissertation_EX2_EP,1,96,2022-05-03T18:55:52+00:00,8.154070854187,3,Pure_Forward.csv,READVersionA.csv,"Read Pure F A","Read Pure F A",CARROT,POTATO,BUFFER3,Buffer,91,55,STUDY,8,8,,Study/JOL,BUFFER3,8002,,,-1,-1,,,,1
w10085119,r9ohlqh0jn,Nick_Dissertation_EX2_EP,1,97,2022-05-03T18:56:00+00:00,8.1549520492554,3,Pure_Forward.csv,READVersionA.csv,"Read Pure F A","Read Pure F A",NOODLE,STRING,BUFFER3,Buffer,92,56,STUDY,8,8,,Study/JOL,BUFFER3,8002,,,-1,-1,,,,1
w10085119,r9ohlqh0jn,Nick_Dissertation_EX2_EP,1,98,2022-05-03T18:56:08+00:00,8.15669298172,3,Pure_Forward.csv,READVersionA.csv,"Read Pure F A","Read Pure F A",CAMP,ADVENTURE,BUFFER3,Buffer,95,53,STUDY,8,8,,Study/JOL,BUFFER3,8002,,,-1,-1,,,,1
w10085119,r9ohlqh0jn,Nick_Dissertation_EX2_EP,1,99,2022-05-03T18:56:17+00:00,8.1574630737305,3,Pure_Forward.csv,READVersionA.csv,"Read Pure F A","Read Pure F A",SHRIMP,FISH,BUFFER3,Buffer,93,52,STUDY,8,8,,Study/JOL,BUFFER3,8002,,,-1,-1,,,,1
w10085119,r9ohlqh0jn,Nick_Dissertation_EX2_EP,1,100,2022-05-03T18:56:25+00:00,8.1385769844055,3,Pure_Forward.csv,READVersionA.csv,"Read Pure F A","Read Pure F A",ICE,FROZEN,BUFFER3,Buffer,94,54,STUDY,8,8,,Study/JOL,BUFFER3,8001,,,-1,-1,,,,1
w10085119,r9ohlqh0jn,Nick_Dissertation_EX2_EP,1,101,2022-05-03T18:56:33+00:00,8.1383788585663,3,Pure_Forward.csv,READVersionA.csv,"Read Pure F A","Read Pure F A",FEUD,FIGHT,Study2,F,173,85,STUDY,8,8,,Study/JOL,"Study Phase2",8002,,,-1,-1,,,,1
w10085119,r9ohlqh0jn,Nick_Dissertation_EX2_EP,1,102,2022-05-03T18:56:41+00:00,8.1471421718597,3,Pure_Forward.csv,READVersionA.csv,"Read Pure F A","Read Pure F A",CHERRY,RED,Study2,F,164,89,STUDY,8,8,,Study/JOL,"Study Phase2",8001,,,-1,-1,,,,1
w10085119,r9ohlqh0jn,Nick_Dissertation_EX2_EP,1,103,2022-05-03T18:56:49+00:00,8.1553659439087,3,Pure_Forward.csv,READVersionA.csv,"Read Pure F A","Read Pure F A",ADJOURN,END,Study2,F,161,81,STUDY,8,8,,Study/JOL,"Study Phase2",8002,,,-1,-1,,,,1
w10085119,r9ohlqh0jn,Nick_Dissertation_EX2_EP,1,104,2022-05-03T18:56:57+00:00,8.1488389968872,3,Pure_Forward.csv,READVersionA.csv,"Read Pure F A","Read Pure F A",PILOT,PLANE,Study2,F,114,59,STUDY,8,8,,Study/JOL,"Study Phase2",8001,,,-1,-1,,,,1
w10085119,r9ohlqh0jn,Nick_Dissertation_EX2_EP,1,105,2022-05-03T18:57:05+00:00,8.1516270637512,3,Pure_Forward.csv,READVersionA.csv,"Read Pure F A","Read Pure F A",CHORE,WORK,Study2,F,109,96,STUDY,8,8,,Study/JOL,"Study Phase2",8001,,,-1,-1,,,,1
w10085119,r9ohlqh0jn,Nick_Dissertation_EX2_EP,1,106,2022-05-03T18:57:14+00:00,8.1538519859314,3,Pure_Forward.csv,READVersionA.csv,"Read Pure F A","Read Pure F A",FURRY,DOG,Study2,F,162,62,STUDY,8,8,,Study/JOL,"Study Phase2",8001,,,-1,-1,,,,1
w10085119,r9ohlqh0jn,Nick_Dissertation_EX2_EP,1,107,2022-05-03T18:57:22+00:00,8.1648378372192,3,Pure_Forward.csv,READVersionA.csv,"Read Pure F A","Read Pure F A",ATTIRE,CLOTHES,Study2,F,113,69,STUDY,8,8,,Study/JOL,"Study Phase2",8001,,,-1,-1,,,,1
w10085119,r9ohlqh0jn,Nick_Dissertation_EX2_EP,1,108,2022-05-03T18:57:30+00:00,8.1493380069733,3,Pure_Forward.csv,READVersionA.csv,"Read Pure F A","Read Pure F A",SCALP,HEAD,Study2,F,165,87,STUDY,8,8,,Study/JOL,"Study Phase2",8001,,,-1,-1,,,,1
w10085119,r9ohlqh0jn,Nick_Dissertation_EX2_EP,1,109,2022-05-03T18:57:38+00:00,8.14417719841,3,Pure_Forward.csv,READVersionA.csv,"Read Pure F A","Read Pure F A",ENOUGH,FULL,Study2,F,96,82,STUDY,8,8,,Study/JOL,"Study Phase2",8002,,,-1,-1,,,,1
w10085119,r9ohlqh0jn,Nick_Dissertation_EX2_EP,1,110,2022-05-03T18:57:46+00:00,8.1446998119354,3,Pure_Forward.csv,READVersionA.csv,"Read Pure F A","Read Pure F A",DINE,EAT,Study2,F,171,76,STUDY,8,8,,Study/JOL,"Study Phase2",8001,,,-1,-1,,,,1
w10085119,r9ohlqh0jn,Nick_Dissertation_EX2_EP,1,111,2022-05-03T18:57:54+00:00,8.1409449577332,3,Pure_Forward.csv,READVersionA.csv,"Read Pure F A","Read Pure F A",CAVE,DARK,Study2,F,98,72,STUDY,8,8,,Study/JOL,"Study Phase2",8002,,,-1,-1,,,,1
w10085119,r9ohlqh0jn,Nick_Dissertation_EX2_EP,1,112,2022-05-03T18:58:03+00:00,8.1488242149353,3,Pure_Forward.csv,READVersionA.csv,"Read Pure F A","Read Pure F A",ATTORNEY,LAW,Study2,F,104,95,STUDY,8,8,,Study/JOL,"Study Phase2",8001,,,-1,-1,,,,1
w10085119,r9ohlqh0jn,Nick_Dissertation_EX2_EP,1,113,2022-05-03T18:58:11+00:00,8.1521530151367,3,Pure_Forward.csv,READVersionA.csv,"Read Pure F A","Read Pure F A",DETECTIVE,MYSTERY,Study2,F,160,86,STUDY,8,8,,Study/JOL,"Study Phase2",8002,,,-1,-1,,,,1
w10085119,r9ohlqh0jn,Nick_Dissertation_EX2_EP,1,114,2022-05-03T18:58:19+00:00,8.1484348773956,3,Pure_Forward.csv,READVersionA.csv,"Read Pure F A","Read Pure F A",SEIZE,TAKE,Study2,F,99,77,STUDY,8,8,,Study/JOL,"Study Phase2",8001,,,-1,-1,,,,1
w10085119,r9ohlqh0jn,Nick_Dissertation_EX2_EP,1,115,2022-05-03T18:58:27+00:00,8.1522629261017,3,Pure_Forward.csv,READVersionA.csv,"Read Pure F A","Read Pure F A",FAMINE,HUNGER,Study2,F,110,80,STUDY,8,8,,Study/JOL,"Study Phase2",8002,,,-1,-1,,,,1
w10085119,r9ohlqh0jn,Nick_Dissertation_EX2_EP,1,116,2022-05-03T18:58:35+00:00,8.1478450298309,3,Pure_Forward.csv,READVersionA.csv,"Read Pure F A","Read Pure F A",DIVISION,MATH,Study2,F,103,79,STUDY,8,8,,Study/JOL,"Study Phase2",8002,,,-1,-1,,,,1
w10085119,r9ohlqh0jn,Nick_Dissertation_EX2_EP,1,117,2022-05-03T18:58:43+00:00,8.1524410247803,3,Pure_Forward.csv,READVersionA.csv,"Read Pure F A","Read Pure F A",PILOT,PLANE,Study2,F,114,59,STUDY,8,8,,Study/JOL,"Study Phase2",8001,,,-1,-1,,,,1
w10085119,r9ohlqh0jn,Nick_Dissertation_EX2_EP,1,118,2022-05-03T18:58:51+00:00,8.1582820415497,3,Pure_Forward.csv,READVersionA.csv,"Read Pure F A","Read Pure F A",FANTASTIC,GREAT,Study2,F,105,78,STUDY,8,8,,Study/JOL,"Study Phase2",8002,,,-1,-1,,,,1
w10085119,r9ohlqh0jn,Nick_Dissertation_EX2_EP,1,119,2022-05-03T18:59:00+00:00,8.1515650749207,3,Pure_Forward.csv,READVersionA.csv,"Read Pure F A","Read Pure F A",EXTENSION,LONG,Study2,F,156,91,STUDY,8,8,,Study/JOL,"Study Phase2",8003,,,-1,-1,,,,1
w10085119,r9ohlqh0jn,Nick_Dissertation_EX2_EP,1,120,2022-05-03T18:59:08+00:00,8.1436419487,3,Pure_Forward.csv,READVersionA.csv,"Read Pure F A","Read Pure F A",SHOELACE,TIE,Study2,F,159,75,STUDY,8,8,,Study/JOL,"Study Phase2",8001,,,-1,-1,,,,1
w10085119,r9ohlqh0jn,Nick_Dissertation_EX2_EP,1,121,2022-05-03T18:59:16+00:00,8.1469969749451,3,Pure_Forward.csv,READVersionA.csv,"Read Pure F A","Read Pure F A",SIP,DRINK,Study2,F,97,88,STUDY,8,8,,Study/JOL,"Study Phase2",8002,,,-1,-1,,,,1
w10085119,r9ohlqh0jn,Nick_Dissertation_EX2_EP,1,122,2022-05-03T18:59:24+00:00,8.1501529216766,3,Pure_Forward.csv,READVersionA.csv,"Read Pure F A","Read Pure F A",DROWSY,SLEEP,Study2,F,111,94,STUDY,8,8,,Study/JOL,"Study Phase2",8003,,,-1,-1,,,,1
w10085119,r9ohlqh0jn,Nick_Dissertation_EX2_EP,1,123,2022-05-03T18:59:32+00:00,8.1508541107178,3,Pure_Forward.csv,READVersionA.csv,"Read Pure F A","Read Pure F A",RACKET,BALL,Study2,F,108,73,STUDY,8,8,,Study/JOL,"Study Phase2",8001,,,-1,-1,,,,1
w10085119,r9ohlqh0jn,Nick_Dissertation_EX2_EP,1,124,2022-05-03T18:59:40+00:00,8.1495499610901,3,Pure_Forward.csv,READVersionA.csv,"Read Pure F A","Read Pure F A",AFFECTION,LOVE,Study2,F,175,66,STUDY,8,8,,Study/JOL,"Study Phase2",8002,,,-1,-1,,,,1
w10085119,r9ohlqh0jn,Nick_Dissertation_EX2_EP,1,125,2022-05-03T18:59:48+00:00,8.1579179763794,3,Pure_Forward.csv,READVersionA.csv,"Read Pure F A","Read Pure F A",CACTUS,PLANT,Study2,F,158,65,STUDY,8,8,,Study/JOL,"Study Phase2",8002,,,-1,-1,,,,1
w10085119,r9ohlqh0jn,Nick_Dissertation_EX2_EP,1,126,2022-05-03T18:59:57+00:00,8.1507019996643,3,Pure_Forward.csv,READVersionA.csv,"Read Pure F A","Read Pure F A",CHOP,CUT,Study2,F,167,71,STUDY,8,8,,Study/JOL,"Study Phase2",8002,,,-1,-1,,,,1
w10085119,r9ohlqh0jn,Nick_Dissertation_EX2_EP,1,127,2022-05-03T19:00:05+00:00,8.165344953537,3,Pure_Forward.csv,READVersionA.csv,"Read Pure F A","Read Pure F A",INCENSE,SMELL,Study2,F,170,64,STUDY,8,8,,Study/JOL,"Study Phase2",8001,,,-1,-1,,,,1
w10085119,r9ohlqh0jn,Nick_Dissertation_EX2_EP,1,128,2022-05-03T19:00:13+00:00,8.162899017334,3,Pure_Forward.csv,READVersionA.csv,"Read Pure F A","Read Pure F A",BLAZE,FIRE,Study2,F,115,84,STUDY,8,8,,Study/JOL,"Study Phase2",8003,,,-1,-1,,,,1
w10085119,r9ohlqh0jn,Nick_Dissertation_EX2_EP,1,129,2022-05-03T19:00:21+00:00,8.150465965271,3,Pure_Forward.csv,READVersionA.csv,"Read Pure F A","Read Pure F A",DELINQUENT,BAD,Study1,F,6,23,STUDY,8,8,,Study/JOL,"Study Phase2",8001,,,-1,-1,,,,1
w10085119,r9ohlqh0jn,Nick_Dissertation_EX2_EP,1,130,2022-05-03T19:00:29+00:00,8.1485011577606,3,Pure_Forward.csv,READVersionA.csv,"Read Pure F A","Read Pure F A",LATCH,KEY,Study2,F,106,63,STUDY,8,8,,Study/JOL,"Study Phase2",8001,,,-1,-1,,,,1
w10085119,r9ohlqh0jn,Nick_Dissertation_EX2_EP,1,131,2022-05-03T19:00:37+00:00,8.1528949737549,3,Pure_Forward.csv,READVersionA.csv,"Read Pure F A","Read Pure F A",DRIVER,CAR,Study2,F,166,61,STUDY,8,8,,Study/JOL,"Study Phase2",8001,,,-1,-1,,,,1
w10085119,r9ohlqh0jn,Nick_Dissertation_EX2_EP,1,132,2022-05-03T19:00:46+00:00,8.1548900604248,3,Pure_Forward.csv,READVersionA.csv,"Read Pure F A","Read Pure F A",DOCUMENT,PAPER,Study2,F,169,92,STUDY,8,8,,Study/JOL,"Study Phase2",8001,,,-1,-1,,,,1
w10085119,r9ohlqh0jn,Nick_Dissertation_EX2_EP,1,133,2022-05-03T19:00:54+00:00,8.1514089107513,3,Pure_Forward.csv,READVersionA.csv,"Read Pure F A","Read Pure F A",CLUE,GAME,Study2,F,157,67,STUDY,8,8,,Study/JOL,"Study Phase2",8002,,,-1,-1,,,,1
w10085119,r9ohlqh0jn,Nick_Dissertation_EX2_EP,1,134,2022-05-03T19:01:02+00:00,8.1633670330048,3,Pure_Forward.csv,READVersionA.csv,"Read Pure F A","Read Pure F A",LITTER,TRASH,Study2,F,163,57,STUDY,8,8,,Study/JOL,"Study Phase2",8001,,,-1,-1,,,,1
w10085119,r9ohlqh0jn,Nick_Dissertation_EX2_EP,1,135,2022-05-03T19:01:10+00:00,8.151083946228,3,Pure_Forward.csv,READVersionA.csv,"Read Pure F A","Read Pure F A",GROWTH,HEIGHT,Study2,F,100,60,STUDY,8,8,,Study/JOL,"Study Phase2",8002,,,-1,-1,,,,1
w10085119,r9ohlqh0jn,Nick_Dissertation_EX2_EP,1,136,2022-05-03T19:01:18+00:00,8.168142080307,3,Pure_Forward.csv,READVersionA.csv,"Read Pure F A","Read Pure F A",CHILL,COLD,Study2,F,174,68,STUDY,8,8,,Study/JOL,"Study Phase2",8001,,,-1,-1,,,,1
w10085119,r9ohlqh0jn,Nick_Dissertation_EX2_EP,1,137,2022-05-03T19:01:26+00:00,8.1623208522797,3,Pure_Forward.csv,READVersionA.csv,"Read Pure F A","Read Pure F A",WASP,BUG,Study2,F,102,93,STUDY,8,8,,Study/JOL,"Study Phase2",8001,,,-1,-1,,,,1
w10085119,r9ohlqh0jn,Nick_Dissertation_EX2_EP,1,138,2022-05-03T19:01:35+00:00,8.1526091098785,3,Pure_Forward.csv,READVersionA.csv,"Read Pure F A","Read Pure F A",WORD,SENTENCE,Study2,F,101,90,STUDY,8,8,,Study/JOL,"Study Phase2",8000,,,-1,-1,,,,1
w10085119,r9ohlqh0jn,Nick_Dissertation_EX2_EP,1,139,2022-05-03T19:01:43+00:00,8.1533679962158,3,Pure_Forward.csv,READVersionA.csv,"Read Pure F A","Read Pure F A",CHILI,HOT,Study2,F,107,74,STUDY,8,8,,Study/JOL,"Study Phase2",8002,,,-1,-1,,,,1
w10085119,r9ohlqh0jn,Nick_Dissertation_EX2_EP,1,140,2022-05-03T19:01:51+00:00,8.1542508602142,3,Pure_Forward.csv,READVersionA.csv,"Read Pure F A","Read Pure F A",MULE,DONKEY,Study2,F,168,70,STUDY,8,8,,Study/JOL,"Study Phase2",8001,,,-1,-1,,,,1
w10085119,r9ohlqh0jn,Nick_Dissertation_EX2_EP,1,141,2022-05-03T19:01:59+00:00,8.1535511016846,3,Pure_Forward.csv,READVersionA.csv,"Read Pure F A","Read Pure F A",TOOL,SHED,BUFFER4,Buffer,178,97,STUDY,8,8,,Study/JOL,BUFFER4,8001,,,-1,-1,,,,1
w10085119,r9ohlqh0jn,Nick_Dissertation_EX2_EP,1,142,2022-05-03T19:02:07+00:00,8.1550281047821,3,Pure_Forward.csv,READVersionA.csv,"Read Pure F A","Read Pure F A",DAYS,WEEKS,BUFFER4,Buffer,176,101,STUDY,8,8,,Study/JOL,BUFFER4,8001,,,-1,-1,,,,1
w10085119,r9ohlqh0jn,Nick_Dissertation_EX2_EP,1,143,2022-05-03T19:02:15+00:00,8.1531229019165,3,Pure_Forward.csv,READVersionA.csv,"Read Pure F A","Read Pure F A",SPRING,MARCH,BUFFER4,Buffer,179,98,STUDY,8,8,,Study/JOL,BUFFER4,8002,,,-1,-1,,,,1
w10085119,r9ohlqh0jn,Nick_Dissertation_EX2_EP,1,144,2022-05-03T19:02:23+00:00,8.1547029018402,3,Pure_Forward.csv,READVersionA.csv,"Read Pure F A","Read Pure F A",OCTOBER,SPOOKY,BUFFER4,Buffer,180,100,STUDY,8,8,,Study/JOL,BUFFER4,8002,,,-1,-1,,,,1
w10085119,r9ohlqh0jn,Nick_Dissertation_EX2_EP,1,145,2022-05-03T19:02:32+00:00,8.1471440792084,3,Pure_Forward.csv,READVersionA.csv,"Read Pure F A","Read Pure F A",MONTH,YEAR,BUFFER4,Buffer,177,99,STUDY,8,8,,Study/JOL,BUFFER4,8005,,,-1,-1,,,,1
w10085119,r9ohlqh0jn,Nick_Dissertation_EX2_EP,1,146,2022-05-03T19:02:34+00:00,2.7724931240082,3,Pure_Forward.csv,READVersionA.csv,"Read Pure F A","Read Pure F A",,,,,,0,Instruct,User,-,"You have completed this section. Please press Enter.",Filler_Instruction,Instruct5,2632,,,-1,-1,,,,1
w10085119,r9ohlqh0jn,Nick_Dissertation_EX2_EP,1,147,2022-05-03T19:04:35+00:00,120.20262289047,3,Pure_Forward.csv,READVersionA.csv,"Read Pure F A","Read Pure F A",,,,,,0,FreeRecall,120,120,"Please list the 50 US states in reverse alphabetical order (z - a). The task will automatically advance to the next screen after two minutes.",,Filler2,120001,"louisiana tennessee mississippi texas utah kansas new york maine new hampshire georgia arkansas alabama florida nevada arizona california washington ohio kentucky new mexico south carolina north carolina connecticut ",0,9496,93795,0,0,,1
w10085119,r9ohlqh0jn,Nick_Dissertation_EX2_EP,1,148,2022-05-03T19:04:49+00:00,14.330501079559,3,Pure_Forward.csv,READVersionA.csv,"Read Pure F A","Read Pure F A",,,,,,0,Instruct,-,10,"You will now be presented with the first word from each of the previously studied item pairs. Please type the missing word. If you do not know the word, you may guess or press Enter to skip forward to the next pair.",,Instruct6,14171,,,-1,-1,,,,1
w10085119,r9ohlqh0jn,Nick_Dissertation_EX2_EP,1,149,2022-05-03T19:04:51+00:00,2.141902923584,3,Pure_Forward.csv,READVersionA.csv,"Read Pure F A","Read Pure F A",RACKET,BALL,Study2,F,108,73,Test,User,-,,Recall,Recall2,1991,"ball ",100,1167,1904,1,1,,1
w10085119,r9ohlqh0jn,Nick_Dissertation_EX2_EP,1,150,2022-05-03T19:04:52+00:00,1.1888868808746,3,Pure_Forward.csv,READVersionA.csv,"Read Pure F A","Read Pure F A",DETECTIVE,MYSTERY,Study2,F,160,86,Test,User,-,,Recall,Recall2,1048,,0,-1,-1,0,0,,1
w10085119,r9ohlqh0jn,Nick_Dissertation_EX2_EP,1,151,2022-05-03T19:04:54+00:00,1.7379031181335,3,Pure_Forward.csv,READVersionA.csv,"Read Pure F A","Read Pure F A",PILOT,PLANE,Study2,F,114,59,Test,User,-,,Recall,Recall2,1597,"plane ",100,906,1512,1,1,,1
w10085119,r9ohlqh0jn,Nick_Dissertation_EX2_EP,1,152,2022-05-03T19:04:55+00:00,1.2630701065063,3,Pure_Forward.csv,READVersionA.csv,"Read Pure F A","Read Pure F A",MULE,DONKEY,Study2,F,168,70,Test,User,-,,Recall,Recall2,1132,,0,-1,-1,0,0,,1
w10085119,r9ohlqh0jn,Nick_Dissertation_EX2_EP,1,153,2022-05-03T19:04:56+00:00,0.85867977142334,3,Pure_Forward.csv,READVersionA.csv,"Read Pure F A","Read Pure F A",FANTASTIC,GREAT,Study2,F,105,78,Test,User,-,,Recall,Recall2,729,,0,-1,-1,0,0,,1
w10085119,r9ohlqh0jn,Nick_Dissertation_EX2_EP,1,154,2022-05-03T19:04:58+00:00,1.5619251728058,3,Pure_Forward.csv,READVersionA.csv,"Read Pure F A","Read Pure F A",CHORE,WORK,Study2,F,109,96,Test,User,-,,Recall,Recall2,1432,"work ",100,864,1352,1,1,,1
w10085119,r9ohlqh0jn,Nick_Dissertation_EX2_EP,1,155,2022-05-03T19:04:59+00:00,1.3952779769897,3,Pure_Forward.csv,READVersionA.csv,"Read Pure F A","Read Pure F A",CHILI,HOT,Study2,F,107,74,Test,User,-,,Recall,Recall2,1257,"hot ",100,863,1144,1,1,,1
w10085119,r9ohlqh0jn,Nick_Dissertation_EX2_EP,1,156,2022-05-03T19:05:00+00:00,1.2487800121307,3,Pure_Forward.csv,READVersionA.csv,"Read Pure F A","Read Pure F A",CAVE,DARK,Study2,F,98,72,Test,User,-,,Recall,Recall2,1087,,0,-1,-1,0,0,,1
w10085119,r9ohlqh0jn,Nick_Dissertation_EX2_EP,1,157,2022-05-03T19:05:01+00:00,0.80153584480286,3,Pure_Forward.csv,READVersionA.csv,"Read Pure F A","Read Pure F A",FEUD,FIGHT,Study2,F,173,85,Test,User,-,,Recall,Recall2,660,,0,-1,-1,0,0,,1
w10085119,r9ohlqh0jn,Nick_Dissertation_EX2_EP,1,158,2022-05-03T19:05:02+00:00,0.96203517913818,3,Pure_Forward.csv,READVersionA.csv,"Read Pure F A","Read Pure F A",GROWTH,HEIGHT,Study2,F,100,60,Test,User,-,,Recall,Recall2,802,,0,-1,-1,0,0,,1
w10085119,r9ohlqh0jn,Nick_Dissertation_EX2_EP,1,159,2022-05-03T19:05:04+00:00,1.6271848678589,3,Pure_Forward.csv,READVersionA.csv,"Read Pure F A","Read Pure F A",WASP,BUG,Study2,F,102,93,Test,User,-,,Recall,Recall2,1486,"bug ",100,911,1338,1,1,,1
w10085119,r9ohlqh0jn,Nick_Dissertation_EX2_EP,1,160,2022-05-03T19:05:05+00:00,0.95332002639771,3,Pure_Forward.csv,READVersionA.csv,"Read Pure F A","Read Pure F A",SIP,DRINK,Study2,F,97,88,Test,User,-,,Recall,Recall2,845,,0,-1,-1,0,0,,1
w10085119,r9ohlqh0jn,Nick_Dissertation_EX2_EP,1,161,2022-05-03T19:05:06+00:00,1.6615259647369,3,Pure_Forward.csv,READVersionA.csv,"Read Pure F A","Read Pure F A",SHOELACE,TIE,Study2,F,159,75,Test,User,-,,Recall,Recall2,1529,"tir ",66.666666666667,31,1453,0,0,,1
w10085119,r9ohlqh0jn,Nick_Dissertation_EX2_EP,1,162,2022-05-03T19:05:08+00:00,1.8678250312805,3,Pure_Forward.csv,READVersionA.csv,"Read Pure F A","Read Pure F A",FURRY,DOG,Study2,F,162,62,Test,User,-,,Recall,Recall2,1724,"dog ",100,1303,1632,1,1,,1
w10085119,r9ohlqh0jn,Nick_Dissertation_EX2_EP,1,163,2022-05-03T19:05:17+00:00,8.7519021034241,3,Pure_Forward.csv,READVersionA.csv,"Read Pure F A","Read Pure F A",DOCUMENT,PAPER,Study2,F,169,92,Test,User,-,,Recall,Recall2,3485,,0,-1,-1,0,0,,1
w10085119,r9ohlqh0jn,Nick_Dissertation_EX2_EP,1,164,2022-05-03T19:05:20+00:00,2.5851278305054,3,Pure_Forward.csv,READVersionA.csv,"Read Pure F A","Read Pure F A",ADJOURN,END,Study2,F,161,81,Test,User,-,,Recall,Recall2,2428,"end ",100,1973,2329,1,1,,1
w10085119,r9ohlqh0jn,Nick_Dissertation_EX2_EP,1,165,2022-05-03T19:05:21+00:00,1.8700230121613,3,Pure_Forward.csv,READVersionA.csv,"Read Pure F A","Read Pure F A",DROWSY,SLEEP,Study2,F,111,94,Test,User,-,,Recall,Recall2,1711,"sleep ",100,1017,1603,1,1,,1
w10085119,r9ohlqh0jn,Nick_Dissertation_EX2_EP,1,166,2022-05-03T19:05:24+00:00,2.1321451663971,3,Pure_Forward.csv,READVersionA.csv,"Read Pure F A","Read Pure F A",CACTUS,PLANT,Study2,F,158,65,Test,User,-,,Recall,Recall2,1995,"plant ",100,1317,1871,1,1,,1
w10085119,r9ohlqh0jn,Nick_Dissertation_EX2_EP,1,167,2022-05-03T19:05:25+00:00,1.6535499095917,3,Pure_Forward.csv,READVersionA.csv,"Read Pure F A","Read Pure F A",LATCH,KEY,Study2,F,106,63,Test,User,-,,Recall,Recall2,1509,"key ",100,973,1397,1,1,,1
w10085119,r9ohlqh0jn,Nick_Dissertation_EX2_EP,1,168,2022-05-03T19:05:27+00:00,1.8857119083405,3,Pure_Forward.csv,READVersionA.csv,"Read Pure F A","Read Pure F A",SEIZE,TAKE,Study2,F,99,77,Test,User,-,,Recall,Recall2,1715,"stop ",25,1151,1566,0,0,,1
w10085119,r9ohlqh0jn,Nick_Dissertation_EX2_EP,1,169,2022-05-03T19:05:30+00:00,2.9151620864868,3,Pure_Forward.csv,READVersionA.csv,"Read Pure F A","Read Pure F A",CHILL,COLD,Study2,F,174,68,Test,User,-,,Recall,Recall2,2776,,0,698,1071,0,0,,1
w10085119,r9ohlqh0jn,Nick_Dissertation_EX2_EP,1,170,2022-05-03T19:05:31+00:00,1.1079630851746,3,Pure_Forward.csv,READVersionA.csv,"Read Pure F A","Read Pure F A",CLUE,GAME,Study2,F,157,67,Test,User,-,,Recall,Recall2,875,,0,-1,-1,0,0,,1
w10085119,r9ohlqh0jn,Nick_Dissertation_EX2_EP,1,171,2022-05-03T19:05:33+00:00,2.231782913208,3,Pure_Forward.csv,READVersionA.csv,"Read Pure F A","Read Pure F A",AFFECTION,LOVE,Study2,F,175,66,Test,User,-,,Recall,Recall2,1779,"love ",100,1214,1726,1,1,,1
w10085119,r9ohlqh0jn,Nick_Dissertation_EX2_EP,1,172,2022-05-03T19:05:35+00:00,1.5578629970551,3,Pure_Forward.csv,READVersionA.csv,"Read Pure F A","Read Pure F A",WORD,SENTENCE,Study2,F,101,90,Test,User,-,,Recall,Recall2,1285,,0,-1,-1,0,0,,1
w10085119,r9ohlqh0jn,Nick_Dissertation_EX2_EP,1,173,2022-05-03T19:05:37+00:00,2.3133399486542,3,Pure_Forward.csv,READVersionA.csv,"Read Pure F A","Read Pure F A",DINE,EAT,Study2,F,171,76,Test,User,-,,Recall,Recall2,2180,"eat ",100,1714,2068,1,1,,1
w10085119,r9ohlqh0jn,Nick_Dissertation_EX2_EP,1,174,2022-05-03T19:05:38+00:00,1.1304080486298,3,Pure_Forward.csv,READVersionA.csv,"Read Pure F A","Read Pure F A",EXTENSION,LONG,Study2,F,156,91,Test,User,-,,Recall,Recall2,1003,,0,-1,-1,0,0,,1
w10085119,r9ohlqh0jn,Nick_Dissertation_EX2_EP,1,175,2022-05-03T19:05:40+00:00,1.7147090435028,3,Pure_Forward.csv,READVersionA.csv,"Read Pure F A","Read Pure F A",PILOT,PLANE,Study2,F,114,59,Test,User,-,,Recall,Recall2,1576,"plane ",100,869,1500,1,1,,1
w10085119,r9ohlqh0jn,Nick_Dissertation_EX2_EP,1,176,2022-05-03T19:05:43+00:00,3.2718360424042,3,Pure_Forward.csv,READVersionA.csv,"Read Pure F A","Read Pure F A",ATTIRE,CLOTHES,Study2,F,113,69,Test,User,-,,Recall,Recall2,3130,"clothes ",100,2407,3072,1,1,,1
w10085119,r9ohlqh0jn,Nick_Dissertation_EX2_EP,1,177,2022-05-03T19:05:45+00:00,1.7084758281708,3,Pure_Forward.csv,READVersionA.csv,"Read Pure F A","Read Pure F A",CHERRY,RED,Study2,F,164,89,Test,User,-,,Recall,Recall2,1568,"red ",100,1073,1418,1,1,,1
w10085119,r9ohlqh0jn,Nick_Dissertation_EX2_EP,1,178,2022-05-03T19:05:46+00:00,0.89675211906433,3,Pure_Forward.csv,READVersionA.csv,"Read Pure F A","Read Pure F A",INCENSE,SMELL,Study2,F,170,64,Test,User,-,,Recall,Recall2,756,,0,-1,-1,0,0,,1
w10085119,r9ohlqh0jn,Nick_Dissertation_EX2_EP,1,179,2022-05-03T19:05:50+00:00,3.7985279560089,3,Pure_Forward.csv,READVersionA.csv,"Read Pure F A","Read Pure F A",FAMINE,HUNGER,Study2,F,110,80,Test,User,-,,Recall,Recall2,3651,"tired ",18.181818181818,1569,3524,0,0,,1
w10085119,r9ohlqh0jn,Nick_Dissertation_EX2_EP,1,180,2022-05-03T19:05:51+00:00,1.7649030685425,3,Pure_Forward.csv,READVersionA.csv,"Read Pure F A","Read Pure F A",LITTER,TRASH,Study2,F,163,57,Test,User,-,,Recall,Recall2,1624,,0,-1,-1,0,0,,1
w10085119,r9ohlqh0jn,Nick_Dissertation_EX2_EP,1,181,2022-05-03T19:05:53+00:00,1.8747658729553,3,Pure_Forward.csv,READVersionA.csv,"Read Pure F A","Read Pure F A",DIVISION,MATH,Study2,F,103,79,Test,User,-,,Recall,Recall2,1728,"math ",100,102,1624,1,1,,1
w10085119,r9ohlqh0jn,Nick_Dissertation_EX2_EP,1,182,2022-05-03T19:05:55+00:00,1.2179801464081,3,Pure_Forward.csv,READVersionA.csv,"Read Pure F A","Read Pure F A",ENOUGH,FULL,Study2,F,96,82,Test,User,-,,Recall,Recall2,1084,,0,-1,-1,0,0,,1
w10085119,r9ohlqh0jn,Nick_Dissertation_EX2_EP,1,183,2022-05-03T19:05:56+00:00,1.9232928752899,3,Pure_Forward.csv,READVersionA.csv,"Read Pure F A","Read Pure F A",DELINQUENT,BAD,Study1,F,6,23,Test,User,-,,Recall,Recall2,1784,"bad ",100,1265,1699,1,1,,1
w10085119,r9ohlqh0jn,Nick_Dissertation_EX2_EP,1,184,2022-05-03T19:05:58+00:00,1.6627240180969,3,Pure_Forward.csv,READVersionA.csv,"Read Pure F A","Read Pure F A",BLAZE,FIRE,Study2,F,115,84,Test,User,-,,Recall,Recall2,1513,"fire ",100,1028,1428,1,1,,1
w10085119,r9ohlqh0jn,Nick_Dissertation_EX2_EP,1,185,2022-05-03T19:05:59+00:00,1.0135970115662,3,Pure_Forward.csv,READVersionA.csv,"Read Pure F A","Read Pure F A",DRIVER,CAR,Study2,F,166,61,Test,User,-,,Recall,Recall2,866,,0,-1,-1,0,0,,1
w10085119,r9ohlqh0jn,Nick_Dissertation_EX2_EP,1,186,2022-05-03T19:06:01+00:00,2.3244409561157,3,Pure_Forward.csv,READVersionA.csv,"Read Pure F A","Read Pure F A",SCALP,HEAD,Study2,F,165,87,Test,User,-,,Recall,Recall2,2177,"head ",100,1325,2100,1,1,,1
w10085119,r9ohlqh0jn,Nick_Dissertation_EX2_EP,1,187,2022-05-03T19:06:03+00:00,1.6482779979706,3,Pure_Forward.csv,READVersionA.csv,"Read Pure F A","Read Pure F A",ATTORNEY,LAW,Study2,F,104,95,Test,User,-,,Recall,Recall2,1504,"law ",100,965,1342,1,1,,1
w10085119,r9ohlqh0jn,Nick_Dissertation_EX2_EP,1,188,2022-05-03T19:06:05+00:00,1.9931361675262,3,Pure_Forward.csv,READVersionA.csv,"Read Pure F A","Read Pure F A",CHOP,CUT,Study2,F,167,71,Test,User,-,,Recall,Recall2,1841,"cut ",100,1375,1736,1,1,,1
w10085119,r9ohlqh0jn,Nick_Dissertation_EX2_EP,1,189,2022-05-03T19:06:06+00:00,1.1013460159302,3,Pure_Forward.csv,READVersionA.csv,"Read Pure F A","Read Pure F A",,,,,,0,Instruct,User,-,"You have completed this section. Please press Enter.",,Instruct7,960,,,-1,-1,,,,1
w10085119,r9ohlqh0jn,Nick_Dissertation_EX2_EP,1,190,2022-05-03T19:06:09+00:00,2.62690782547,3,Pure_Forward.csv,READVersionA.csv,"Read Pure F A","Read Pure F A",,,,,,0,Instruct,User,-,"The following screen will ask you a few questions abour your experience today. You must complete these questions to receive credit.",,Instruct8,2480,,,-1,-1,,,,1
