Username,ID,ExperimentName,Session,Trial,Date,TimeDif,"Condition Number","Stimuli File","Order File","Condition Description","Condition Notes",Stimuli*Cue,Stimuli*Answer,Stimuli*Shuffle,"Stimuli*Stimuli Notes",Stimuli*Value,Procedure*Item,"Procedure*Trial Type","Procedure*Max Time","Procedure*Min Time",Procedure*Text,"Procedure*Procedure Notes",Procedure*Shuffle,Response*RT,Response*Response,Response*Accuracy,Response*RTfirst,Response*RTlast,Response*strictAcc,Response*lenientAcc,Response*focus,Response*Focus
w10080591,qbzawr9ab8,Nick_Dissertation_EX2_EP,1,1,2022-02-23T19:33:57+00:00,12.087924003601,3,Pure_Forward.csv,READVersionA.csv,"Read Pure F A","Read Pure F A",,,,,,0,Instruct,-,10,"Please study each of the following word pairs. Remember that your memory will be tested! Each pair will be displayed on the computer screen and will automatically advance to the next pair. Press ENTER when you are ready to begin.",Initial_Instruct,Instruct1,11990,,,-1,-1,,,,1
w10080591,qbzawr9ab8,Nick_Dissertation_EX2_EP,1,2,2022-02-23T19:34:05+00:00,8.2382972240448,3,Pure_Forward.csv,READVersionA.csv,"Read Pure F A","Read Pure F A",SPACE,JAM,BUFFER1,Buffer,5,4,STUDY,8,8,,Study/JOL,BUFFER,8002,,,-1,-1,,,,1
w10080591,qbzawr9ab8,Nick_Dissertation_EX2_EP,1,3,2022-02-23T19:34:13+00:00,8.1293239593506,3,Pure_Forward.csv,READVersionA.csv,"Read Pure F A","Read Pure F A",BASEBALL,CATCHER,BUFFER1,Buffer,2,3,STUDY,8,8,,Study/JOL,BUFFER,8002,,,-1,-1,,,,1
w10080591,qbzawr9ab8,Nick_Dissertation_EX2_EP,1,4,2022-02-23T19:34:21+00:00,8.1267118453979,3,Pure_Forward.csv,READVersionA.csv,"Read Pure F A","Read Pure F A",SCARE,HIDE,BUFFER1,Buffer,4,5,STUDY,8,8,,Study/JOL,BUFFER,8002,,,-1,-1,,,,1
w10080591,qbzawr9ab8,Nick_Dissertation_EX2_EP,1,5,2022-02-23T19:34:29+00:00,8.1309070587158,3,Pure_Forward.csv,READVersionA.csv,"Read Pure F A","Read Pure F A",TREES,GREEN,BUFFER1,Buffer,1,2,STUDY,8,8,,Study/JOL,BUFFER,8001,,,-1,-1,,,,1
w10080591,qbzawr9ab8,Nick_Dissertation_EX2_EP,1,6,2022-02-23T19:34:38+00:00,8.138375043869,3,Pure_Forward.csv,READVersionA.csv,"Read Pure F A","Read Pure F A",PEANUT,BUTTER,BUFFER1,Buffer,3,6,STUDY,8,8,,Study/JOL,BUFFER,8001,,,-1,-1,,,,1
w10080591,qbzawr9ab8,Nick_Dissertation_EX2_EP,1,7,2022-02-23T19:34:46+00:00,8.1296188831329,3,Pure_Forward.csv,READVersionA.csv,"Read Pure F A","Read Pure F A",PANTHER,CAT,Study1,F,76,16,STUDY,8,8,,Study/JOL,"Study Phase",8002,,,-1,-1,,,,1
w10080591,qbzawr9ab8,Nick_Dissertation_EX2_EP,1,8,2022-02-23T19:34:54+00:00,8.129114151001,3,Pure_Forward.csv,READVersionA.csv,"Read Pure F A","Read Pure F A",BITTER,COLD,Study1,F,12,41,STUDY,8,8,,Study/JOL,"Study Phase",8002,,,-1,-1,,,,1
w10080591,qbzawr9ab8,Nick_Dissertation_EX2_EP,1,9,2022-02-23T19:35:02+00:00,8.1384630203247,3,Pure_Forward.csv,READVersionA.csv,"Read Pure F A","Read Pure F A",SWAN,BIRD,Study1,F,14,18,STUDY,8,8,,Study/JOL,"Study Phase",8002,,,-1,-1,,,,1
w10080591,qbzawr9ab8,Nick_Dissertation_EX2_EP,1,10,2022-02-23T19:35:10+00:00,8.1450929641724,3,Pure_Forward.csv,READVersionA.csv,"Read Pure F A","Read Pure F A",BRAWL,FIGHT,Study1,F,85,17,STUDY,8,8,,Study/JOL,"Study Phase",8001,,,-1,-1,,,,1
w10080591,qbzawr9ab8,Nick_Dissertation_EX2_EP,1,11,2022-02-23T19:35:18+00:00,8.1260409355164,3,Pure_Forward.csv,READVersionA.csv,"Read Pure F A","Read Pure F A",ROOT,PLANT,Study1,F,13,10,STUDY,8,8,,Study/JOL,"Study Phase",8002,,,-1,-1,,,,1
w10080591,qbzawr9ab8,Nick_Dissertation_EX2_EP,1,12,2022-02-23T19:35:27+00:00,8.8423669338226,3,Pure_Forward.csv,READVersionA.csv,"Read Pure F A","Read Pure F A",FAVORITE,BEST,Study1,F,75,29,STUDY,8,8,,Study/JOL,"Study Phase",8001,,,-1,-1,,,,1
w10080591,qbzawr9ab8,Nick_Dissertation_EX2_EP,1,13,2022-02-23T19:35:35+00:00,8.2270331382751,3,Pure_Forward.csv,READVersionA.csv,"Read Pure F A","Read Pure F A",COFFIN,DEAD,Study1,F,78,40,STUDY,8,8,,Study/JOL,"Study Phase",8001,,,-1,-1,,,,1
w10080591,qbzawr9ab8,Nick_Dissertation_EX2_EP,1,14,2022-02-23T19:35:43+00:00,8.1300330162048,3,Pure_Forward.csv,READVersionA.csv,"Read Pure F A","Read Pure F A",LEAGUE,BASEBALL,Study1,F,81,30,STUDY,8,8,,Study/JOL,"Study Phase",8000,,,-1,-1,,,,1
w10080591,qbzawr9ab8,Nick_Dissertation_EX2_EP,1,15,2022-02-23T19:35:52+00:00,8.1368899345398,3,Pure_Forward.csv,READVersionA.csv,"Read Pure F A","Read Pure F A",PENGUIN,BIRD,Study1,F,69,25,STUDY,8,8,,Study/JOL,"Study Phase",8004,,,-1,-1,,,,1
w10080591,qbzawr9ab8,Nick_Dissertation_EX2_EP,1,16,2022-02-23T19:36:01+00:00,9.1607429981232,3,Pure_Forward.csv,READVersionA.csv,"Read Pure F A","Read Pure F A",DISCUSSION,TALK,Study1,F,21,39,STUDY,8,8,,Study/JOL,"Study Phase",8003,,,-1,-1,,,,1
w10080591,qbzawr9ab8,Nick_Dissertation_EX2_EP,1,17,2022-02-23T19:36:09+00:00,8.138190984726,3,Pure_Forward.csv,READVersionA.csv,"Read Pure F A","Read Pure F A",BRIDGE,WATER,Study1,F,18,15,STUDY,8,8,,Study/JOL,"Study Phase",8001,,,-1,-1,,,,1
w10080591,qbzawr9ab8,Nick_Dissertation_EX2_EP,1,18,2022-02-23T19:36:17+00:00,8.147313117981,3,Pure_Forward.csv,READVersionA.csv,"Read Pure F A","Read Pure F A",HORNET,STING,Study1,F,11,46,STUDY,8,8,,Study/JOL,"Study Phase",8002,,,-1,-1,,,,1
w10080591,qbzawr9ab8,Nick_Dissertation_EX2_EP,1,19,2022-02-23T19:36:26+00:00,9.4250478744507,3,Pure_Forward.csv,READVersionA.csv,"Read Pure F A","Read Pure F A",REVENGE,EVEN,Study1,F,72,23,STUDY,8,8,,Study/JOL,"Study Phase",8002,,,-1,-1,,,,1
w10080591,qbzawr9ab8,Nick_Dissertation_EX2_EP,1,20,2022-02-23T19:36:35+00:00,8.1363921165466,3,Pure_Forward.csv,READVersionA.csv,"Read Pure F A","Read Pure F A",THIMBLE,THREAD,Study1,F,71,28,STUDY,8,8,,Study/JOL,"Study Phase",8002,,,-1,-1,,,,1
w10080591,qbzawr9ab8,Nick_Dissertation_EX2_EP,1,21,2022-02-23T19:36:43+00:00,8.1330149173737,3,Pure_Forward.csv,READVersionA.csv,"Read Pure F A","Read Pure F A",GEOLOGY,ROCK,Study1,F,19,20,STUDY,8,8,,Study/JOL,"Study Phase",8001,,,-1,-1,,,,1
w10080591,qbzawr9ab8,Nick_Dissertation_EX2_EP,1,22,2022-02-23T19:36:51+00:00,8.1310288906097,3,Pure_Forward.csv,READVersionA.csv,"Read Pure F A","Read Pure F A",REVOLUTION,WAR,Study1,F,20,13,STUDY,8,8,,Study/JOL,"Study Phase",8001,,,-1,-1,,,,1
w10080591,qbzawr9ab8,Nick_Dissertation_EX2_EP,1,23,2022-02-23T19:36:59+00:00,8.1423351764679,3,Pure_Forward.csv,READVersionA.csv,"Read Pure F A","Read Pure F A",ACTRESS,STAR,Study1,F,70,27,STUDY,8,8,,Study/JOL,"Study Phase",8001,,,-1,-1,,,,1
w10080591,qbzawr9ab8,Nick_Dissertation_EX2_EP,1,24,2022-02-23T19:37:07+00:00,8.141135931015,3,Pure_Forward.csv,READVersionA.csv,"Read Pure F A","Read Pure F A",WINDSHIELD,CAR,Study1,F,67,37,STUDY,8,8,,Study/JOL,"Study Phase",8001,,,-1,-1,,,,1
w10080591,qbzawr9ab8,Nick_Dissertation_EX2_EP,1,25,2022-02-23T19:37:15+00:00,8.1323449611664,3,Pure_Forward.csv,READVersionA.csv,"Read Pure F A","Read Pure F A",DELINQUENT,BAD,Study1,F,6,7,STUDY,8,8,,Study/JOL,"Study Phase",8001,,,-1,-1,,,,1
w10080591,qbzawr9ab8,Nick_Dissertation_EX2_EP,1,26,2022-02-23T19:37:23+00:00,8.140221118927,3,Pure_Forward.csv,READVersionA.csv,"Read Pure F A","Read Pure F A",NAP,SLEEP,Study1,F,84,36,STUDY,8,8,,Study/JOL,"Study Phase",8002,,,-1,-1,,,,1
w10080591,qbzawr9ab8,Nick_Dissertation_EX2_EP,1,27,2022-02-23T19:37:32+00:00,8.8741199970245,3,Pure_Forward.csv,READVersionA.csv,"Read Pure F A","Read Pure F A",PAW,DOG,Study1,F,15,12,STUDY,8,8,,Study/JOL,"Study Phase",8002,,,-1,-1,,,,1
w10080591,qbzawr9ab8,Nick_Dissertation_EX2_EP,1,28,2022-02-23T19:37:42+00:00,9.6383888721466,3,Pure_Forward.csv,READVersionA.csv,"Read Pure F A","Read Pure F A",HYGIENE,CLEAN,Study1,F,17,21,STUDY,8,8,,Study/JOL,"Study Phase",8001,,,-1,-1,,,,1
w10080591,qbzawr9ab8,Nick_Dissertation_EX2_EP,1,29,2022-02-23T19:37:50+00:00,8.1236400604248,3,Pure_Forward.csv,READVersionA.csv,"Read Pure F A","Read Pure F A",BREAKABLE,GLASS,Study1,F,77,38,STUDY,8,8,,Study/JOL,"Study Phase",8001,,,-1,-1,,,,1
w10080591,qbzawr9ab8,Nick_Dissertation_EX2_EP,1,30,2022-02-23T19:37:58+00:00,8.1469240188599,3,Pure_Forward.csv,READVersionA.csv,"Read Pure F A","Read Pure F A",WAGE,MONEY,Study1,F,8,35,STUDY,8,8,,Study/JOL,"Study Phase",8000,,,-1,-1,,,,1
w10080591,qbzawr9ab8,Nick_Dissertation_EX2_EP,1,31,2022-02-23T19:38:06+00:00,8.1443810462952,3,Pure_Forward.csv,READVersionA.csv,"Read Pure F A","Read Pure F A",EDITOR,NEWS,Study1,F,10,8,STUDY,8,8,,Study/JOL,"Study Phase",8001,,,-1,-1,,,,1
w10080591,qbzawr9ab8,Nick_Dissertation_EX2_EP,1,32,2022-02-23T19:38:14+00:00,8.1262469291687,3,Pure_Forward.csv,READVersionA.csv,"Read Pure F A","Read Pure F A",BANKER,MONEY,Study1,F,82,32,STUDY,8,8,,Study/JOL,"Study Phase",8001,,,-1,-1,,,,1
w10080591,qbzawr9ab8,Nick_Dissertation_EX2_EP,1,33,2022-02-23T19:38:23+00:00,8.1257801055908,3,Pure_Forward.csv,READVersionA.csv,"Read Pure F A","Read Pure F A",VILLAIN,BAD,Study1,F,68,14,STUDY,8,8,,Study/JOL,"Study Phase",8003,,,-1,-1,,,,1
w10080591,qbzawr9ab8,Nick_Dissertation_EX2_EP,1,34,2022-02-23T19:38:31+00:00,8.1365029811859,3,Pure_Forward.csv,READVersionA.csv,"Read Pure F A","Read Pure F A",ORCHID,FLOWER,Study1,F,24,11,STUDY,8,8,,Study/JOL,"Study Phase",8000,,,-1,-1,,,,1
w10080591,qbzawr9ab8,Nick_Dissertation_EX2_EP,1,35,2022-02-23T19:38:39+00:00,8.1433370113373,3,Pure_Forward.csv,READVersionA.csv,"Read Pure F A","Read Pure F A",SARDINE,FISH,Study1,F,80,22,STUDY,8,8,,Study/JOL,"Study Phase",8002,,,-1,-1,,,,1
w10080591,qbzawr9ab8,Nick_Dissertation_EX2_EP,1,36,2022-02-23T19:38:47+00:00,8.2390928268433,3,Pure_Forward.csv,READVersionA.csv,"Read Pure F A","Read Pure F A",TUNA,FISH,Study1,F,25,43,STUDY,8,8,,Study/JOL,"Study Phase",8001,,,-1,-1,,,,1
w10080591,qbzawr9ab8,Nick_Dissertation_EX2_EP,1,37,2022-02-23T19:38:55+00:00,8.3886330127716,3,Pure_Forward.csv,READVersionA.csv,"Read Pure F A","Read Pure F A",DIGESTION,STOMACH,Study1,F,7,44,STUDY,8,8,,Study/JOL,"Study Phase",8006,,,-1,-1,,,,1
w10080591,qbzawr9ab8,Nick_Dissertation_EX2_EP,1,38,2022-02-23T19:39:04+00:00,8.1535420417786,3,Pure_Forward.csv,READVersionA.csv,"Read Pure F A","Read Pure F A",BALLOON,POP,Study1,F,73,33,STUDY,8,8,,Study/JOL,"Study Phase",8002,,,-1,-1,,,,1
w10080591,qbzawr9ab8,Nick_Dissertation_EX2_EP,1,39,2022-02-23T19:39:12+00:00,8.3578410148621,3,Pure_Forward.csv,READVersionA.csv,"Read Pure F A","Read Pure F A",WAY,OUT,Study1,F,16,19,STUDY,8,8,,Study/JOL,"Study Phase",8003,,,-1,-1,,,,1
w10080591,qbzawr9ab8,Nick_Dissertation_EX2_EP,1,40,2022-02-23T19:39:20+00:00,8.3447029590607,3,Pure_Forward.csv,READVersionA.csv,"Read Pure F A","Read Pure F A",HERD,COW,Study1,F,22,26,STUDY,8,8,,Study/JOL,"Study Phase",8001,,,-1,-1,,,,1
w10080591,qbzawr9ab8,Nick_Dissertation_EX2_EP,1,41,2022-02-23T19:39:28+00:00,8.1412250995636,3,Pure_Forward.csv,READVersionA.csv,"Read Pure F A","Read Pure F A",TRUTHFUL,HONEST,Study1,F,83,24,STUDY,8,8,,Study/JOL,"Study Phase",8000,,,-1,-1,,,,1
w10080591,qbzawr9ab8,Nick_Dissertation_EX2_EP,1,42,2022-02-23T19:39:37+00:00,8.1483869552612,3,Pure_Forward.csv,READVersionA.csv,"Read Pure F A","Read Pure F A",CHISEL,HAMMER,Study1,F,9,9,STUDY,8,8,,Study/JOL,"Study Phase",8001,,,-1,-1,,,,1
w10080591,qbzawr9ab8,Nick_Dissertation_EX2_EP,1,43,2022-02-23T19:39:45+00:00,8.1441938877106,3,Pure_Forward.csv,READVersionA.csv,"Read Pure F A","Read Pure F A",FLIP,TURN,Study1,F,66,31,STUDY,8,8,,Study/JOL,"Study Phase",8005,,,-1,-1,,,,1
w10080591,qbzawr9ab8,Nick_Dissertation_EX2_EP,1,44,2022-02-23T19:39:53+00:00,8.1349310874939,3,Pure_Forward.csv,READVersionA.csv,"Read Pure F A","Read Pure F A",STRAWBERRY,FRUIT,Study1,F,74,42,STUDY,8,8,,Study/JOL,"Study Phase",8003,,,-1,-1,,,,1
w10080591,qbzawr9ab8,Nick_Dissertation_EX2_EP,1,45,2022-02-23T19:40:01+00:00,8.1332859992981,3,Pure_Forward.csv,READVersionA.csv,"Read Pure F A","Read Pure F A",AIRCRAFT,PLANE,Study1,F,79,34,STUDY,8,8,,Study/JOL,"Study Phase",8003,,,-1,-1,,,,1
w10080591,qbzawr9ab8,Nick_Dissertation_EX2_EP,1,46,2022-02-23T19:40:09+00:00,8.1297810077667,3,Pure_Forward.csv,READVersionA.csv,"Read Pure F A","Read Pure F A",CREDIT,CARD,Study1,F,23,45,STUDY,8,8,,Study/JOL,"Study Phase",8002,,,-1,-1,,,,1
w10080591,qbzawr9ab8,Nick_Dissertation_EX2_EP,1,47,2022-02-23T19:40:17+00:00,8.1353690624237,3,Pure_Forward.csv,READVersionA.csv,"Read Pure F A","Read Pure F A",THING,STUFF,BUFFER2,Buffer,90,49,STUDY,8,8,,Study/JOL,BUFFER2,8001,,,-1,-1,,,,1
w10080591,qbzawr9ab8,Nick_Dissertation_EX2_EP,1,48,2022-02-23T19:40:25+00:00,8.1308169364929,3,Pure_Forward.csv,READVersionA.csv,"Read Pure F A","Read Pure F A",GEESE,GOOSE,BUFFER2,Buffer,86,51,STUDY,8,8,,Study/JOL,BUFFER2,8003,,,-1,-1,,,,1
w10080591,qbzawr9ab8,Nick_Dissertation_EX2_EP,1,49,2022-02-23T19:40:34+00:00,8.1324970722198,3,Pure_Forward.csv,READVersionA.csv,"Read Pure F A","Read Pure F A",MOON,SPACE,BUFFER2,Buffer,89,48,STUDY,8,8,,Study/JOL,BUFFER2,8002,,,-1,-1,,,,1
w10080591,qbzawr9ab8,Nick_Dissertation_EX2_EP,1,50,2022-02-23T19:40:42+00:00,8.128968000412,3,Pure_Forward.csv,READVersionA.csv,"Read Pure F A","Read Pure F A",SHERRIF,POLICE,BUFFER2,Buffer,87,47,STUDY,8,8,,Study/JOL,BUFFER2,8000,,,-1,-1,,,,1
w10080591,qbzawr9ab8,Nick_Dissertation_EX2_EP,1,51,2022-02-23T19:40:50+00:00,8.1319139003754,3,Pure_Forward.csv,READVersionA.csv,"Read Pure F A","Read Pure F A",MALT,CHOCOLATE,BUFFER2,Buffer,88,50,STUDY,8,8,,Study/JOL,BUFFER2,8002,,,-1,-1,,,,1
w10080591,qbzawr9ab8,Nick_Dissertation_EX2_EP,1,52,2022-02-23T19:40:53+00:00,2.8878171443939,3,Pure_Forward.csv,READVersionA.csv,"Read Pure F A","Read Pure F A",,,,,,0,Instruct,User,-,"You have completed this section. Please press Enter.",Filler_Instruction,Instruct2,2761,,,-1,-1,,,,1
w10080591,qbzawr9ab8,Nick_Dissertation_EX2_EP,1,53,2022-02-23T19:42:53+00:00,120.14659285545,3,Pure_Forward.csv,READVersionA.csv,"Read Pure F A","Read Pure F A",,,,,,0,FreeRecall,120,120,"Please list the 50 US states in alphabetical order. The task will automatically advance to the next screen after two minutes.",,Filler1,120002,"Alabama Alaska Arizona Arkansas California Colorado Connecticut Delaware Florida Georgia Hawaii Idaho Illinois Indiana Iowa Kansas Kentucky Louisiana Maine Maryland Massachusetts Michigan Minnesota Mississippi Missouri Montana Nebrask ",0,5584,119731,0,0,,1
w10080591,qbzawr9ab8,Nick_Dissertation_EX2_EP,1,54,2022-02-23T19:43:07+00:00,13.942635059357,3,Pure_Forward.csv,READVersionA.csv,"Read Pure F A","Read Pure F A",,,,,,0,Instruct,-,10,"You will now be presented with the first word from each of the previously studied item pairs. Please type the missing word. If you do not know the word, you may guess or press Enter to skip forward to the next pair.",,Instruct3,13734,,,-1,-1,,,,1
w10080591,qbzawr9ab8,Nick_Dissertation_EX2_EP,1,55,2022-02-23T19:43:10+00:00,2.9570989608765,3,Pure_Forward.csv,READVersionA.csv,"Read Pure F A","Read Pure F A",HORNET,STING,Study1,F,11,46,Test,User,-,,Recall,Recall1,2671,Bee,0,1978,2234,0,0,,1
w10080591,qbzawr9ab8,Nick_Dissertation_EX2_EP,1,56,2022-02-23T19:43:13+00:00,3.002876996994,3,Pure_Forward.csv,READVersionA.csv,"Read Pure F A","Read Pure F A",ACTRESS,STAR,Study1,F,70,27,Test,User,-,,Recall,Recall1,2868,Actor,44.444444444444,2182,2717,0,0,,1
w10080591,qbzawr9ab8,Nick_Dissertation_EX2_EP,1,57,2022-02-23T19:43:15+00:00,2.1277101039886,3,Pure_Forward.csv,READVersionA.csv,"Read Pure F A","Read Pure F A",BRIDGE,WATER,Study1,F,18,15,Test,User,-,,Recall,Recall1,1990,Water,100,1494,1922,1,1,,1
w10080591,qbzawr9ab8,Nick_Dissertation_EX2_EP,1,58,2022-02-23T19:43:17+00:00,2.4786388874054,3,Pure_Forward.csv,READVersionA.csv,"Read Pure F A","Read Pure F A",VILLAIN,BAD,Study1,F,68,14,Test,User,-,,Recall,Recall1,2354,hero,0,1632,2147,0,0,,1
w10080591,qbzawr9ab8,Nick_Dissertation_EX2_EP,1,59,2022-02-23T19:43:19+00:00,1.9961950778961,3,Pure_Forward.csv,READVersionA.csv,"Read Pure F A","Read Pure F A",AIRCRAFT,PLANE,Study1,F,79,34,Test,User,-,,Recall,Recall1,1870,plane,100,1292,1736,1,1,,1
w10080591,qbzawr9ab8,Nick_Dissertation_EX2_EP,1,60,2022-02-23T19:43:21+00:00,1.9750669002533,3,Pure_Forward.csv,READVersionA.csv,"Read Pure F A","Read Pure F A",HERD,COW,Study1,F,22,26,Test,User,-,,Recall,Recall1,1846,sheep,0,965,1634,0,0,,1
w10080591,qbzawr9ab8,Nick_Dissertation_EX2_EP,1,61,2022-02-23T19:43:23+00:00,2.1012439727783,3,Pure_Forward.csv,READVersionA.csv,"Read Pure F A","Read Pure F A",PENGUIN,BIRD,Study1,F,69,25,Test,User,-,,Recall,Recall1,1970,Fly,0,1471,1746,0,0,,1
w10080591,qbzawr9ab8,Nick_Dissertation_EX2_EP,1,62,2022-02-23T19:43:25+00:00,1.6796021461487,3,Pure_Forward.csv,READVersionA.csv,"Read Pure F A","Read Pure F A",FAVORITE,BEST,Study1,F,75,29,Test,User,-,,Recall,Recall1,1546,best,100,1054,1418,1,1,,1
w10080591,qbzawr9ab8,Nick_Dissertation_EX2_EP,1,63,2022-02-23T19:43:27+00:00,2.06804895401,3,Pure_Forward.csv,READVersionA.csv,"Read Pure F A","Read Pure F A",CHISEL,HAMMER,Study1,F,9,9,Test,User,-,,Recall,Recall1,1946,knife,18.181818181818,1281,1775,0,0,,1
w10080591,qbzawr9ab8,Nick_Dissertation_EX2_EP,1,64,2022-02-23T19:43:30+00:00,2.4671008586884,3,Pure_Forward.csv,READVersionA.csv,"Read Pure F A","Read Pure F A",THIMBLE,THREAD,Study1,F,71,28,Test,User,-,,Recall,Recall1,2340,thread,100,1523,2195,1,1,,1
w10080591,qbzawr9ab8,Nick_Dissertation_EX2_EP,1,65,2022-02-23T19:43:32+00:00,2.2197721004486,3,Pure_Forward.csv,READVersionA.csv,"Read Pure F A","Read Pure F A",BREAKABLE,GLASS,Study1,F,77,38,Test,User,-,,Recall,Recall1,2093,glass,100,1287,1846,1,1,,1
w10080591,qbzawr9ab8,Nick_Dissertation_EX2_EP,1,66,2022-02-23T19:43:34+00:00,2.3131370544434,3,Pure_Forward.csv,READVersionA.csv,"Read Pure F A","Read Pure F A",WAY,OUT,Study1,F,16,19,Test,User,-,,Recall,Recall1,2180,through,40,1403,1970,0,0,,1
w10080591,qbzawr9ab8,Nick_Dissertation_EX2_EP,1,67,2022-02-23T19:43:36+00:00,1.7331390380859,3,Pure_Forward.csv,READVersionA.csv,"Read Pure F A","Read Pure F A",GEOLOGY,ROCK,Study1,F,19,20,Test,User,-,,Recall,Recall1,1589,rock,100,1086,1424,1,1,,1
w10080591,qbzawr9ab8,Nick_Dissertation_EX2_EP,1,68,2022-02-23T19:43:39+00:00,2.6369209289551,3,Pure_Forward.csv,READVersionA.csv,"Read Pure F A","Read Pure F A",FLIP,TURN,Study1,F,66,31,Test,User,-,,Recall,Recall1,2501,through,36.363636363636,1794,2324,0,0,,1
w10080591,qbzawr9ab8,Nick_Dissertation_EX2_EP,1,69,2022-02-23T19:43:41+00:00,1.9927508831024,3,Pure_Forward.csv,READVersionA.csv,"Read Pure F A","Read Pure F A",DISCUSSION,TALK,Study1,F,21,39,Test,User,-,,Recall,Recall1,1869,talk,100,1476,1678,1,1,,1
w10080591,qbzawr9ab8,Nick_Dissertation_EX2_EP,1,70,2022-02-23T19:43:42+00:00,1.8300371170044,3,Pure_Forward.csv,READVersionA.csv,"Read Pure F A","Read Pure F A",COFFIN,DEAD,Study1,F,78,40,Test,User,-,,Recall,Recall1,1697,dead,100,1120,1536,1,1,,1
w10080591,qbzawr9ab8,Nick_Dissertation_EX2_EP,1,71,2022-02-23T19:43:44+00:00,1.7812860012054,3,Pure_Forward.csv,READVersionA.csv,"Read Pure F A","Read Pure F A",WAGE,MONEY,Study1,F,8,35,Test,User,-,,Recall,Recall1,1638,money,100,973,1451,1,1,,1
w10080591,qbzawr9ab8,Nick_Dissertation_EX2_EP,1,72,2022-02-23T19:43:46+00:00,1.9438140392303,3,Pure_Forward.csv,READVersionA.csv,"Read Pure F A","Read Pure F A",ROOT,PLANT,Study1,F,13,10,Test,User,-,,Recall,Recall1,1811,plant,100,1038,1584,1,1,,1
w10080591,qbzawr9ab8,Nick_Dissertation_EX2_EP,1,73,2022-02-23T19:43:48+00:00,1.5730469226837,3,Pure_Forward.csv,READVersionA.csv,"Read Pure F A","Read Pure F A",CREDIT,CARD,Study1,F,23,45,Test,User,-,,Recall,Recall1,1446,card,100,883,1350,1,1,,1
w10080591,qbzawr9ab8,Nick_Dissertation_EX2_EP,1,74,2022-02-23T19:43:50+00:00,2.4023959636688,3,Pure_Forward.csv,READVersionA.csv,"Read Pure F A","Read Pure F A",BALLOON,POP,Study1,F,73,33,Test,User,-,,Recall,Recall1,2265,high,0,1792,2077,0,0,,1
w10080591,qbzawr9ab8,Nick_Dissertation_EX2_EP,1,75,2022-02-23T19:43:52+00:00,1.6732230186462,3,Pure_Forward.csv,READVersionA.csv,"Read Pure F A","Read Pure F A",NAP,SLEEP,Study1,F,84,36,Test,User,-,,Recall,Recall1,1539,sleep,100,929,1360,1,1,,1
w10080591,qbzawr9ab8,Nick_Dissertation_EX2_EP,1,76,2022-02-23T19:43:54+00:00,1.868824005127,3,Pure_Forward.csv,READVersionA.csv,"Read Pure F A","Read Pure F A",BRAWL,FIGHT,Study1,F,85,17,Test,User,-,,Recall,Recall1,1743,fight,100,1288,1635,1,1,,1
w10080591,qbzawr9ab8,Nick_Dissertation_EX2_EP,1,77,2022-02-23T19:43:56+00:00,2.3861849308014,3,Pure_Forward.csv,READVersionA.csv,"Read Pure F A","Read Pure F A",WINDSHIELD,CAR,Study1,F,67,37,Test,User,-,,Recall,Recall1,2253,wiper,25,1739,2154,0,0,,1
w10080591,qbzawr9ab8,Nick_Dissertation_EX2_EP,1,78,2022-02-23T19:43:58+00:00,1.729994058609,3,Pure_Forward.csv,READVersionA.csv,"Read Pure F A","Read Pure F A",DELINQUENT,BAD,Study1,F,6,7,Test,User,-,,Recall,Recall1,1606,bad,100,1197,1417,1,1,,1
w10080591,qbzawr9ab8,Nick_Dissertation_EX2_EP,1,79,2022-02-23T19:44:00+00:00,1.7878761291504,3,Pure_Forward.csv,READVersionA.csv,"Read Pure F A","Read Pure F A",PAW,DOG,Study1,F,15,12,Test,User,-,,Recall,Recall1,1653,dog,100,1042,1477,1,1,,1
w10080591,qbzawr9ab8,Nick_Dissertation_EX2_EP,1,80,2022-02-23T19:44:01+00:00,1.9540269374847,3,Pure_Forward.csv,READVersionA.csv,"Read Pure F A","Read Pure F A",STRAWBERRY,FRUIT,Study1,F,74,42,Test,User,-,,Recall,Recall1,1820,fruit,100,1327,1689,1,1,,1
w10080591,qbzawr9ab8,Nick_Dissertation_EX2_EP,1,81,2022-02-23T19:44:03+00:00,1.6485350131989,3,Pure_Forward.csv,READVersionA.csv,"Read Pure F A","Read Pure F A",SWAN,BIRD,Study1,F,14,18,Test,User,-,,Recall,Recall1,1518,bird,100,1055,1409,1,1,,1
w10080591,qbzawr9ab8,Nick_Dissertation_EX2_EP,1,82,2022-02-23T19:44:05+00:00,2.0291950702667,3,Pure_Forward.csv,READVersionA.csv,"Read Pure F A","Read Pure F A",HYGIENE,CLEAN,Study1,F,17,21,Test,User,-,,Recall,Recall1,1898,clean,100,1309,1731,1,1,,1
w10080591,qbzawr9ab8,Nick_Dissertation_EX2_EP,1,83,2022-02-23T19:44:08+00:00,2.7378759384155,3,Pure_Forward.csv,READVersionA.csv,"Read Pure F A","Read Pure F A",REVENGE,EVEN,Study1,F,72,23,Test,User,-,,Recall,Recall1,2606,even,100,2093,2422,1,1,,1
w10080591,qbzawr9ab8,Nick_Dissertation_EX2_EP,1,84,2022-02-23T19:44:09+00:00,1.4625768661499,3,Pure_Forward.csv,READVersionA.csv,"Read Pure F A","Read Pure F A",PANTHER,CAT,Study1,F,76,16,Test,User,-,,Recall,Recall1,1336,cat,100,904,1199,1,1,,1
w10080591,qbzawr9ab8,Nick_Dissertation_EX2_EP,1,85,2022-02-23T19:44:12+00:00,2.2119371891022,3,Pure_Forward.csv,READVersionA.csv,"Read Pure F A","Read Pure F A",DIGESTION,STOMACH,Study1,F,7,44,Test,User,-,,Recall,Recall1,2078,stomach,100,1154,1885,1,1,,1
w10080591,qbzawr9ab8,Nick_Dissertation_EX2_EP,1,86,2022-02-23T19:44:14+00:00,2.5192108154297,3,Pure_Forward.csv,READVersionA.csv,"Read Pure F A","Read Pure F A",ORCHID,FLOWER,Study1,F,24,11,Test,User,-,,Recall,Recall1,2387,flower,100,1749,2286,1,1,,1
w10080591,qbzawr9ab8,Nick_Dissertation_EX2_EP,1,87,2022-02-23T19:44:18+00:00,3.7875030040741,3,Pure_Forward.csv,READVersionA.csv,"Read Pure F A","Read Pure F A",BITTER,COLD,Study1,F,12,41,Test,User,-,,Recall,Recall1,3656,sweet,0,2677,3471,0,0,,1
w10080591,qbzawr9ab8,Nick_Dissertation_EX2_EP,1,88,2022-02-23T19:44:20+00:00,2.3779411315918,3,Pure_Forward.csv,READVersionA.csv,"Read Pure F A","Read Pure F A",REVOLUTION,WAR,Study1,F,20,13,Test,User,-,,Recall,Recall1,2245,war,100,1830,2054,1,1,,1
w10080591,qbzawr9ab8,Nick_Dissertation_EX2_EP,1,89,2022-02-23T19:44:22+00:00,2.1946568489075,3,Pure_Forward.csv,READVersionA.csv,"Read Pure F A","Read Pure F A",LEAGUE,BASEBALL,Study1,F,81,30,Test,User,-,,Recall,Recall1,2058,baseball,100,1018,1842,1,1,,1
w10080591,qbzawr9ab8,Nick_Dissertation_EX2_EP,1,90,2022-02-23T19:44:25+00:00,2.0750970840454,3,Pure_Forward.csv,READVersionA.csv,"Read Pure F A","Read Pure F A",EDITOR,NEWS,Study1,F,10,8,Test,User,-,,Recall,Recall1,1944,news,100,1473,1820,1,1,,1
w10080591,qbzawr9ab8,Nick_Dissertation_EX2_EP,1,91,2022-02-23T19:44:27+00:00,2.4961550235748,3,Pure_Forward.csv,READVersionA.csv,"Read Pure F A","Read Pure F A",TUNA,FISH,Study1,F,25,43,Test,User,-,,Recall,Recall1,2310,fish,100,1713,2105,1,1,,1
w10080591,qbzawr9ab8,Nick_Dissertation_EX2_EP,1,92,2022-02-23T19:44:29+00:00,2.4642870426178,3,Pure_Forward.csv,READVersionA.csv,"Read Pure F A","Read Pure F A",BANKER,MONEY,Study1,F,82,32,Test,User,-,,Recall,Recall1,2318,money,100,1678,2117,1,1,,1
w10080591,qbzawr9ab8,Nick_Dissertation_EX2_EP,1,93,2022-02-23T19:44:31+00:00,1.7122550010681,3,Pure_Forward.csv,READVersionA.csv,"Read Pure F A","Read Pure F A",TRUTHFUL,HONEST,Study1,F,83,24,Test,User,-,,Recall,Recall1,1575,honest,100,921,1414,1,1,,1
w10080591,qbzawr9ab8,Nick_Dissertation_EX2_EP,1,94,2022-02-23T19:44:33+00:00,2.1532020568848,3,Pure_Forward.csv,READVersionA.csv,"Read Pure F A","Read Pure F A",SARDINE,FISH,Study1,F,80,22,Test,User,-,,Recall,Recall1,2024,fish,100,1046,1895,1,1,,1
w10080591,qbzawr9ab8,Nick_Dissertation_EX2_EP,1,95,2022-02-23T19:44:50+00:00,16.775172948837,3,Pure_Forward.csv,READVersionA.csv,"Read Pure F A","Read Pure F A",,,,,,0,Instruct,-,10,"You will now be presented with a new set of word pairs. Please study each pair. Remember that your memory will be tested! Each pair will be displayed on the computer screen and will automatically advance to the next pair. Press ENTER when you are ready to begin.",Initial_Instruct,Instruct4,16634,,,-1,-1,,,,1
w10080591,qbzawr9ab8,Nick_Dissertation_EX2_EP,1,96,2022-02-23T19:44:58+00:00,8.1972398757935,3,Pure_Forward.csv,READVersionA.csv,"Read Pure F A","Read Pure F A",ICE,FROZEN,BUFFER3,Buffer,94,55,STUDY,8,8,,Study/JOL,BUFFER3,8002,,,-1,-1,,,,1
w10080591,qbzawr9ab8,Nick_Dissertation_EX2_EP,1,97,2022-02-23T19:45:06+00:00,8.1419970989227,3,Pure_Forward.csv,READVersionA.csv,"Read Pure F A","Read Pure F A",NOODLE,STRING,BUFFER3,Buffer,92,52,STUDY,8,8,,Study/JOL,BUFFER3,8003,,,-1,-1,,,,1
w10080591,qbzawr9ab8,Nick_Dissertation_EX2_EP,1,98,2022-02-23T19:45:15+00:00,8.1461038589478,3,Pure_Forward.csv,READVersionA.csv,"Read Pure F A","Read Pure F A",CARROT,POTATO,BUFFER3,Buffer,91,54,STUDY,8,8,,Study/JOL,BUFFER3,8002,,,-1,-1,,,,1
w10080591,qbzawr9ab8,Nick_Dissertation_EX2_EP,1,99,2022-02-23T19:45:23+00:00,8.1330571174622,3,Pure_Forward.csv,READVersionA.csv,"Read Pure F A","Read Pure F A",SHRIMP,FISH,BUFFER3,Buffer,93,56,STUDY,8,8,,Study/JOL,BUFFER3,8002,,,-1,-1,,,,1
w10080591,qbzawr9ab8,Nick_Dissertation_EX2_EP,1,100,2022-02-23T19:45:31+00:00,8.1333079338074,3,Pure_Forward.csv,READVersionA.csv,"Read Pure F A","Read Pure F A",CAMP,ADVENTURE,BUFFER3,Buffer,95,53,STUDY,8,8,,Study/JOL,BUFFER3,8000,,,-1,-1,,,,1
w10080591,qbzawr9ab8,Nick_Dissertation_EX2_EP,1,101,2022-02-23T19:45:39+00:00,8.1317710876465,3,Pure_Forward.csv,READVersionA.csv,"Read Pure F A","Read Pure F A",DROWSY,SLEEP,Study2,F,111,59,STUDY,8,8,,Study/JOL,"Study Phase2",8001,,,-1,-1,,,,1
w10080591,qbzawr9ab8,Nick_Dissertation_EX2_EP,1,102,2022-02-23T19:45:47+00:00,8.1359958648682,3,Pure_Forward.csv,READVersionA.csv,"Read Pure F A","Read Pure F A",CLUE,GAME,Study2,F,157,90,STUDY,8,8,,Study/JOL,"Study Phase2",8001,,,-1,-1,,,,1
w10080591,qbzawr9ab8,Nick_Dissertation_EX2_EP,1,103,2022-02-23T19:45:55+00:00,8.1616871356964,3,Pure_Forward.csv,READVersionA.csv,"Read Pure F A","Read Pure F A",RACKET,BALL,Study2,F,108,74,STUDY,8,8,,Study/JOL,"Study Phase2",8002,,,-1,-1,,,,1
w10080591,qbzawr9ab8,Nick_Dissertation_EX2_EP,1,104,2022-02-23T19:46:03+00:00,8.1305148601532,3,Pure_Forward.csv,READVersionA.csv,"Read Pure F A","Read Pure F A",REVENGE,EVEN,Study1,F,72,23,STUDY,8,8,,Study/JOL,"Study Phase2",8002,,,-1,-1,,,,1
w10080591,qbzawr9ab8,Nick_Dissertation_EX2_EP,1,105,2022-02-23T19:46:12+00:00,8.13933801651,3,Pure_Forward.csv,READVersionA.csv,"Read Pure F A","Read Pure F A",INCENSE,SMELL,Study2,F,170,92,STUDY,8,8,,Study/JOL,"Study Phase2",8002,,,-1,-1,,,,1
w10080591,qbzawr9ab8,Nick_Dissertation_EX2_EP,1,106,2022-02-23T19:46:20+00:00,8.1272370815277,3,Pure_Forward.csv,READVersionA.csv,"Read Pure F A","Read Pure F A",MULE,DONKEY,Study2,F,168,77,STUDY,8,8,,Study/JOL,"Study Phase2",8000,,,-1,-1,,,,1
w10080591,qbzawr9ab8,Nick_Dissertation_EX2_EP,1,107,2022-02-23T19:46:28+00:00,8.1291570663452,3,Pure_Forward.csv,READVersionA.csv,"Read Pure F A","Read Pure F A",CHILI,HOT,Study2,F,107,85,STUDY,8,8,,Study/JOL,"Study Phase2",8001,,,-1,-1,,,,1
w10080591,qbzawr9ab8,Nick_Dissertation_EX2_EP,1,108,2022-02-23T19:46:36+00:00,8.1361248493195,3,Pure_Forward.csv,READVersionA.csv,"Read Pure F A","Read Pure F A",DRIVER,CAR,Study2,F,166,63,STUDY,8,8,,Study/JOL,"Study Phase2",8001,,,-1,-1,,,,1
w10080591,qbzawr9ab8,Nick_Dissertation_EX2_EP,1,109,2022-02-23T19:46:44+00:00,8.137195110321,3,Pure_Forward.csv,READVersionA.csv,"Read Pure F A","Read Pure F A",LATCH,KEY,Study2,F,106,60,STUDY,8,8,,Study/JOL,"Study Phase2",8002,,,-1,-1,,,,1
w10080591,qbzawr9ab8,Nick_Dissertation_EX2_EP,1,110,2022-02-23T19:46:52+00:00,8.1319360733032,3,Pure_Forward.csv,READVersionA.csv,"Read Pure F A","Read Pure F A",CHORE,WORK,Study2,F,109,79,STUDY,8,8,,Study/JOL,"Study Phase2",8001,,,-1,-1,,,,1
w10080591,qbzawr9ab8,Nick_Dissertation_EX2_EP,1,111,2022-02-23T19:47:00+00:00,8.1256518363953,3,Pure_Forward.csv,READVersionA.csv,"Read Pure F A","Read Pure F A",EXTENSION,LONG,Study2,F,156,72,STUDY,8,8,,Study/JOL,"Study Phase2",8001,,,-1,-1,,,,1
w10080591,qbzawr9ab8,Nick_Dissertation_EX2_EP,1,112,2022-02-23T19:47:09+00:00,8.131756067276,3,Pure_Forward.csv,READVersionA.csv,"Read Pure F A","Read Pure F A",BLAZE,FIRE,Study2,F,115,78,STUDY,8,8,,Study/JOL,"Study Phase2",8001,,,-1,-1,,,,1
w10080591,qbzawr9ab8,Nick_Dissertation_EX2_EP,1,113,2022-02-23T19:47:17+00:00,8.1350519657135,3,Pure_Forward.csv,READVersionA.csv,"Read Pure F A","Read Pure F A",STENCH,SMELL,Study2,F,112,82,STUDY,8,8,,Study/JOL,"Study Phase2",8001,,,-1,-1,,,,1
w10080591,qbzawr9ab8,Nick_Dissertation_EX2_EP,1,114,2022-02-23T19:47:25+00:00,8.1356840133667,3,Pure_Forward.csv,READVersionA.csv,"Read Pure F A","Read Pure F A",FANTASTIC,GREAT,Study2,F,105,76,STUDY,8,8,,Study/JOL,"Study Phase2",8002,,,-1,-1,,,,1
w10080591,qbzawr9ab8,Nick_Dissertation_EX2_EP,1,115,2022-02-23T19:47:33+00:00,8.1373131275177,3,Pure_Forward.csv,READVersionA.csv,"Read Pure F A","Read Pure F A",PILOT,PLANE,Study2,F,114,70,STUDY,8,8,,Study/JOL,"Study Phase2",8001,,,-1,-1,,,,1
w10080591,qbzawr9ab8,Nick_Dissertation_EX2_EP,1,116,2022-02-23T19:47:41+00:00,8.1401398181915,3,Pure_Forward.csv,READVersionA.csv,"Read Pure F A","Read Pure F A",ADJOURN,END,Study2,F,161,95,STUDY,8,8,,Study/JOL,"Study Phase2",8001,,,-1,-1,,,,1
w10080591,qbzawr9ab8,Nick_Dissertation_EX2_EP,1,117,2022-02-23T19:47:49+00:00,8.1358361244202,3,Pure_Forward.csv,READVersionA.csv,"Read Pure F A","Read Pure F A",DROWSY,SLEEP,Study2,F,111,59,STUDY,8,8,,Study/JOL,"Study Phase2",8003,,,-1,-1,,,,1
w10080591,qbzawr9ab8,Nick_Dissertation_EX2_EP,1,118,2022-02-23T19:47:57+00:00,8.1389758586884,3,Pure_Forward.csv,READVersionA.csv,"Read Pure F A","Read Pure F A",ENOUGH,FULL,Study2,F,96,84,STUDY,8,8,,Study/JOL,"Study Phase2",8000,,,-1,-1,,,,1
w10080591,qbzawr9ab8,Nick_Dissertation_EX2_EP,1,119,2022-02-23T19:48:05+00:00,8.1348481178284,3,Pure_Forward.csv,READVersionA.csv,"Read Pure F A","Read Pure F A",WORD,SENTENCE,Study2,F,101,69,STUDY,8,8,,Study/JOL,"Study Phase2",8001,,,-1,-1,,,,1
w10080591,qbzawr9ab8,Nick_Dissertation_EX2_EP,1,120,2022-02-23T19:48:14+00:00,8.1334929466248,3,Pure_Forward.csv,READVersionA.csv,"Read Pure F A","Read Pure F A",DETECTIVE,MYSTERY,Study2,F,160,86,STUDY,8,8,,Study/JOL,"Study Phase2",8002,,,-1,-1,,,,1
w10080591,qbzawr9ab8,Nick_Dissertation_EX2_EP,1,121,2022-02-23T19:48:22+00:00,8.132169008255,3,Pure_Forward.csv,READVersionA.csv,"Read Pure F A","Read Pure F A",FEUD,FIGHT,Study2,F,173,67,STUDY,8,8,,Study/JOL,"Study Phase2",8000,,,-1,-1,,,,1
w10080591,qbzawr9ab8,Nick_Dissertation_EX2_EP,1,122,2022-02-23T19:48:30+00:00,8.13010597229,3,Pure_Forward.csv,READVersionA.csv,"Read Pure F A","Read Pure F A",FAMINE,HUNGER,Study2,F,110,64,STUDY,8,8,,Study/JOL,"Study Phase2",8001,,,-1,-1,,,,1
w10080591,qbzawr9ab8,Nick_Dissertation_EX2_EP,1,123,2022-02-23T19:48:38+00:00,8.1315901279449,3,Pure_Forward.csv,READVersionA.csv,"Read Pure F A","Read Pure F A",SHOELACE,TIE,Study2,F,159,93,STUDY,8,8,,Study/JOL,"Study Phase2",8001,,,-1,-1,,,,1
w10080591,qbzawr9ab8,Nick_Dissertation_EX2_EP,1,124,2022-02-23T19:48:46+00:00,8.1426570415497,3,Pure_Forward.csv,READVersionA.csv,"Read Pure F A","Read Pure F A",DINE,EAT,Study2,F,171,88,STUDY,8,8,,Study/JOL,"Study Phase2",8001,,,-1,-1,,,,1
w10080591,qbzawr9ab8,Nick_Dissertation_EX2_EP,1,125,2022-02-23T19:48:54+00:00,8.1383187770844,3,Pure_Forward.csv,READVersionA.csv,"Read Pure F A","Read Pure F A",ATTORNEY,LAW,Study2,F,104,73,STUDY,8,8,,Study/JOL,"Study Phase2",8002,,,-1,-1,,,,1
w10080591,qbzawr9ab8,Nick_Dissertation_EX2_EP,1,126,2022-02-23T19:49:02+00:00,8.1306450366974,3,Pure_Forward.csv,READVersionA.csv,"Read Pure F A","Read Pure F A",SCALP,HEAD,Study2,F,165,91,STUDY,8,8,,Study/JOL,"Study Phase2",8004,,,-1,-1,,,,1
w10080591,qbzawr9ab8,Nick_Dissertation_EX2_EP,1,127,2022-02-23T19:49:11+00:00,8.13414311409,3,Pure_Forward.csv,READVersionA.csv,"Read Pure F A","Read Pure F A",CAVE,DARK,Study2,F,98,66,STUDY,8,8,,Study/JOL,"Study Phase2",8001,,,-1,-1,,,,1
w10080591,qbzawr9ab8,Nick_Dissertation_EX2_EP,1,128,2022-02-23T19:49:19+00:00,8.1367590427399,3,Pure_Forward.csv,READVersionA.csv,"Read Pure F A","Read Pure F A",LITTER,TRASH,Study2,F,163,65,STUDY,8,8,,Study/JOL,"Study Phase2",8002,,,-1,-1,,,,1
w10080591,qbzawr9ab8,Nick_Dissertation_EX2_EP,1,129,2022-02-23T19:49:27+00:00,8.1355748176575,3,Pure_Forward.csv,READVersionA.csv,"Read Pure F A","Read Pure F A",ATTIRE,CLOTHES,Study2,F,113,96,STUDY,8,8,,Study/JOL,"Study Phase2",8001,,,-1,-1,,,,1
w10080591,qbzawr9ab8,Nick_Dissertation_EX2_EP,1,130,2022-02-23T19:49:35+00:00,8.136283159256,3,Pure_Forward.csv,READVersionA.csv,"Read Pure F A","Read Pure F A",AFFECTION,LOVE,Study2,F,175,87,STUDY,8,8,,Study/JOL,"Study Phase2",8001,,,-1,-1,,,,1
w10080591,qbzawr9ab8,Nick_Dissertation_EX2_EP,1,131,2022-02-23T19:49:43+00:00,8.1349740028381,3,Pure_Forward.csv,READVersionA.csv,"Read Pure F A","Read Pure F A",CHILL,COLD,Study2,F,174,94,STUDY,8,8,,Study/JOL,"Study Phase2",8001,,,-1,-1,,,,1
w10080591,qbzawr9ab8,Nick_Dissertation_EX2_EP,1,132,2022-02-23T19:49:51+00:00,8.1366379261017,3,Pure_Forward.csv,READVersionA.csv,"Read Pure F A","Read Pure F A",DOCUMENT,PAPER,Study2,F,169,68,STUDY,8,8,,Study/JOL,"Study Phase2",8002,,,-1,-1,,,,1
w10080591,qbzawr9ab8,Nick_Dissertation_EX2_EP,1,133,2022-02-23T19:49:59+00:00,8.1236519813538,3,Pure_Forward.csv,READVersionA.csv,"Read Pure F A","Read Pure F A",SHEARS,SCISSORS,Study2,F,172,62,STUDY,8,8,,Study/JOL,"Study Phase2",8001,,,-1,-1,,,,1
w10080591,qbzawr9ab8,Nick_Dissertation_EX2_EP,1,134,2022-02-23T19:50:07+00:00,8.1336400508881,3,Pure_Forward.csv,READVersionA.csv,"Read Pure F A","Read Pure F A",GROWTH,HEIGHT,Study2,F,100,81,STUDY,8,8,,Study/JOL,"Study Phase2",8000,,,-1,-1,,,,1
w10080591,qbzawr9ab8,Nick_Dissertation_EX2_EP,1,135,2022-02-23T19:50:16+00:00,8.1404850482941,3,Pure_Forward.csv,READVersionA.csv,"Read Pure F A","Read Pure F A",CHOP,CUT,Study2,F,167,75,STUDY,8,8,,Study/JOL,"Study Phase2",8002,,,-1,-1,,,,1
w10080591,qbzawr9ab8,Nick_Dissertation_EX2_EP,1,136,2022-02-23T19:50:24+00:00,8.1401438713074,3,Pure_Forward.csv,READVersionA.csv,"Read Pure F A","Read Pure F A",WASP,BUG,Study2,F,102,57,STUDY,8,8,,Study/JOL,"Study Phase2",8001,,,-1,-1,,,,1
w10080591,qbzawr9ab8,Nick_Dissertation_EX2_EP,1,137,2022-02-23T19:50:32+00:00,8.1428129673004,3,Pure_Forward.csv,READVersionA.csv,"Read Pure F A","Read Pure F A",CACTUS,PLANT,Study2,F,158,71,STUDY,8,8,,Study/JOL,"Study Phase2",8003,,,-1,-1,,,,1
w10080591,qbzawr9ab8,Nick_Dissertation_EX2_EP,1,138,2022-02-23T19:50:40+00:00,8.1345272064209,3,Pure_Forward.csv,READVersionA.csv,"Read Pure F A","Read Pure F A",DIVISION,MATH,Study2,F,103,61,STUDY,8,8,,Study/JOL,"Study Phase2",8001,,,-1,-1,,,,1
w10080591,qbzawr9ab8,Nick_Dissertation_EX2_EP,1,139,2022-02-23T19:50:48+00:00,8.1309208869934,3,Pure_Forward.csv,READVersionA.csv,"Read Pure F A","Read Pure F A",CHERRY,RED,Study2,F,164,80,STUDY,8,8,,Study/JOL,"Study Phase2",8001,,,-1,-1,,,,1
w10080591,qbzawr9ab8,Nick_Dissertation_EX2_EP,1,140,2022-02-23T19:50:56+00:00,8.1383318901062,3,Pure_Forward.csv,READVersionA.csv,"Read Pure F A","Read Pure F A",SEIZE,TAKE,Study2,F,99,89,STUDY,8,8,,Study/JOL,"Study Phase2",8000,,,-1,-1,,,,1
w10080591,qbzawr9ab8,Nick_Dissertation_EX2_EP,1,141,2022-02-23T19:51:04+00:00,8.1334090232849,3,Pure_Forward.csv,READVersionA.csv,"Read Pure F A","Read Pure F A",SPRING,MARCH,BUFFER4,Buffer,179,100,STUDY,8,8,,Study/JOL,BUFFER4,8002,,,-1,-1,,,,1
w10080591,qbzawr9ab8,Nick_Dissertation_EX2_EP,1,142,2022-02-23T19:51:13+00:00,8.1549081802368,3,Pure_Forward.csv,READVersionA.csv,"Read Pure F A","Read Pure F A",DAYS,WEEKS,BUFFER4,Buffer,176,98,STUDY,8,8,,Study/JOL,BUFFER4,8001,,,-1,-1,,,,1
w10080591,qbzawr9ab8,Nick_Dissertation_EX2_EP,1,143,2022-02-23T19:51:21+00:00,8.2590219974518,3,Pure_Forward.csv,READVersionA.csv,"Read Pure F A","Read Pure F A",MONTH,YEAR,BUFFER4,Buffer,177,99,STUDY,8,8,,Study/JOL,BUFFER4,8002,,,-1,-1,,,,1
w10080591,qbzawr9ab8,Nick_Dissertation_EX2_EP,1,144,2022-02-23T19:51:29+00:00,8.1254408359528,3,Pure_Forward.csv,READVersionA.csv,"Read Pure F A","Read Pure F A",TOOL,SHED,BUFFER4,Buffer,178,101,STUDY,8,8,,Study/JOL,BUFFER4,8000,,,-1,-1,,,,1
w10080591,qbzawr9ab8,Nick_Dissertation_EX2_EP,1,145,2022-02-23T19:51:37+00:00,8.1458230018616,3,Pure_Forward.csv,READVersionA.csv,"Read Pure F A","Read Pure F A",OCTOBER,SPOOKY,BUFFER4,Buffer,180,97,STUDY,8,8,,Study/JOL,BUFFER4,8002,,,-1,-1,,,,1
w10080591,qbzawr9ab8,Nick_Dissertation_EX2_EP,1,146,2022-02-23T19:51:39+00:00,2.3297970294952,3,Pure_Forward.csv,READVersionA.csv,"Read Pure F A","Read Pure F A",,,,,,0,Instruct,User,-,"You have completed this section. Please press Enter.",Filler_Instruction,Instruct5,2196,,,-1,-1,,,,1
w10080591,qbzawr9ab8,Nick_Dissertation_EX2_EP,1,147,2022-02-23T19:53:40+00:00,120.15285396576,3,Pure_Forward.csv,READVersionA.csv,"Read Pure F A","Read Pure F A",,,,,,0,FreeRecall,120,120,"Please list the 50 US states in reverse alphabetical order (z - a). The task will automatically advance to the next screen after two minutes.",,Filler2,120002,"Alabama Alaska Arizona Arkansas California Colorado Connecticut Delaware Florida Georgia Hawaii Idaho Illinois Indiana Iowa Kansas Kentucky Louisiana Maine Maryland Massachusetts Michigan Minnesota Mississippi Missouri Montana Nebraska Nevada New Hampshire New Jersey New Mexico New York North Carolina North Dakota Ohio Oklahoma Oregan",0,2154,119786,0,0,,1
w10080591,qbzawr9ab8,Nick_Dissertation_EX2_EP,1,148,2022-02-23T19:53:50+00:00,10.778560161591,3,Pure_Forward.csv,READVersionA.csv,"Read Pure F A","Read Pure F A",,,,,,0,Instruct,-,10,"You will now be presented with the first word from each of the previously studied item pairs. Please type the missing word. If you do not know the word, you may guess or press Enter to skip forward to the next pair.",,Instruct6,10593,,,-1,-1,,,,1
w10080591,qbzawr9ab8,Nick_Dissertation_EX2_EP,1,149,2022-02-23T19:53:52+00:00,2.0535290241241,3,Pure_Forward.csv,READVersionA.csv,"Read Pure F A","Read Pure F A",SCALP,HEAD,Study2,F,165,91,Test,User,-,,Recall,Recall2,1870,head,100,1378,1728,1,1,,1
w10080591,qbzawr9ab8,Nick_Dissertation_EX2_EP,1,150,2022-02-23T19:53:54+00:00,1.8009188175201,3,Pure_Forward.csv,READVersionA.csv,"Read Pure F A","Read Pure F A",DROWSY,SLEEP,Study2,F,111,59,Test,User,-,,Recall,Recall2,1676,sleep,100,867,1471,1,1,,1
w10080591,qbzawr9ab8,Nick_Dissertation_EX2_EP,1,151,2022-02-23T19:53:56+00:00,1.5561020374298,3,Pure_Forward.csv,READVersionA.csv,"Read Pure F A","Read Pure F A",CHILI,HOT,Study2,F,107,85,Test,User,-,,Recall,Recall2,1431,hot,100,1034,1268,1,1,,1
w10080591,qbzawr9ab8,Nick_Dissertation_EX2_EP,1,152,2022-02-23T19:53:58+00:00,1.7228770256042,3,Pure_Forward.csv,READVersionA.csv,"Read Pure F A","Read Pure F A",DINE,EAT,Study2,F,171,88,Test,User,-,,Recall,Recall2,1599,eat,100,1127,1444,1,1,,1
w10080591,qbzawr9ab8,Nick_Dissertation_EX2_EP,1,153,2022-02-23T19:53:59+00:00,1.51047706604,3,Pure_Forward.csv,READVersionA.csv,"Read Pure F A","Read Pure F A",CHERRY,RED,Study2,F,164,80,Test,User,-,,Recall,Recall2,1388,red,100,955,1255,1,1,,1
w10080591,qbzawr9ab8,Nick_Dissertation_EX2_EP,1,154,2022-02-23T19:54:02+00:00,2.9519100189209,3,Pure_Forward.csv,READVersionA.csv,"Read Pure F A","Read Pure F A",DETECTIVE,MYSTERY,Study2,F,160,86,Test,User,-,,Recall,Recall2,2826,solve,33.333333333333,1888,2725,0,0,,1
w10080591,qbzawr9ab8,Nick_Dissertation_EX2_EP,1,155,2022-02-23T19:54:04+00:00,1.6628229618073,3,Pure_Forward.csv,READVersionA.csv,"Read Pure F A","Read Pure F A",REVENGE,EVEN,Study1,F,72,23,Test,User,-,,Recall,Recall2,1532,even,100,1063,1357,1,1,,1
w10080591,qbzawr9ab8,Nick_Dissertation_EX2_EP,1,156,2022-02-23T19:54:05+00:00,1.739166021347,3,Pure_Forward.csv,READVersionA.csv,"Read Pure F A","Read Pure F A",ENOUGH,FULL,Study2,F,96,84,Test,User,-,,Recall,Recall2,1608,time,0,1225,1510,0,0,,1
w10080591,qbzawr9ab8,Nick_Dissertation_EX2_EP,1,157,2022-02-23T19:54:07+00:00,1.6278350353241,3,Pure_Forward.csv,READVersionA.csv,"Read Pure F A","Read Pure F A",RACKET,BALL,Study2,F,108,74,Test,User,-,,Recall,Recall2,1490,ball,100,977,1330,1,1,,1
w10080591,qbzawr9ab8,Nick_Dissertation_EX2_EP,1,158,2022-02-23T19:54:09+00:00,2.1313719749451,3,Pure_Forward.csv,READVersionA.csv,"Read Pure F A","Read Pure F A",ATTIRE,CLOTHES,Study2,F,113,96,Test,User,-,,Recall,Recall2,2010,nice,36.363636363636,1642,1931,0,0,,1
w10080591,qbzawr9ab8,Nick_Dissertation_EX2_EP,1,159,2022-02-23T19:54:11+00:00,2.1531870365143,3,Pure_Forward.csv,READVersionA.csv,"Read Pure F A","Read Pure F A",WASP,BUG,Study2,F,102,57,Test,User,-,,Recall,Recall2,2030,bug,100,1661,1916,1,1,,1
w10080591,qbzawr9ab8,Nick_Dissertation_EX2_EP,1,160,2022-02-23T19:54:13+00:00,1.7679319381714,3,Pure_Forward.csv,READVersionA.csv,"Read Pure F A","Read Pure F A",AFFECTION,LOVE,Study2,F,175,87,Test,User,-,,Recall,Recall2,1646,love,100,1199,1476,1,1,,1
w10080591,qbzawr9ab8,Nick_Dissertation_EX2_EP,1,161,2022-02-23T19:54:15+00:00,1.7377219200134,3,Pure_Forward.csv,READVersionA.csv,"Read Pure F A","Read Pure F A",FANTASTIC,GREAT,Study2,F,105,76,Test,User,-,,Recall,Recall2,1608,great,100,1004,1448,1,1,,1
w10080591,qbzawr9ab8,Nick_Dissertation_EX2_EP,1,162,2022-02-23T19:54:17+00:00,2.4067649841309,3,Pure_Forward.csv,READVersionA.csv,"Read Pure F A","Read Pure F A",ADJOURN,END,Study2,F,161,95,Test,User,-,,Recall,Recall2,2283,court,0,1793,2152,0,0,,1
w10080591,qbzawr9ab8,Nick_Dissertation_EX2_EP,1,163,2022-02-23T19:54:20+00:00,2.7363200187683,3,Pure_Forward.csv,READVersionA.csv,"Read Pure F A","Read Pure F A",LITTER,TRASH,Study2,F,163,65,Test,User,-,,Recall,Recall2,2608,trash,100,1849,2454,1,1,,1
w10080591,qbzawr9ab8,Nick_Dissertation_EX2_EP,1,164,2022-02-23T19:54:22+00:00,1.6552951335907,3,Pure_Forward.csv,READVersionA.csv,"Read Pure F A","Read Pure F A",BLAZE,FIRE,Study2,F,115,78,Test,User,-,,Recall,Recall2,1537,fire,100,1215,1446,1,1,,1
w10080591,qbzawr9ab8,Nick_Dissertation_EX2_EP,1,165,2022-02-23T19:54:24+00:00,2.4409530162811,3,Pure_Forward.csv,READVersionA.csv,"Read Pure F A","Read Pure F A",CHILL,COLD,Study2,F,174,94,Test,User,-,,Recall,Recall2,2323,cold,100,1907,2227,1,1,,1
w10080591,qbzawr9ab8,Nick_Dissertation_EX2_EP,1,166,2022-02-23T19:54:26+00:00,1.9399688243866,3,Pure_Forward.csv,READVersionA.csv,"Read Pure F A","Read Pure F A",INCENSE,SMELL,Study2,F,170,92,Test,User,-,,Recall,Recall2,1820,smell,100,1180,1609,1,1,,1
w10080591,qbzawr9ab8,Nick_Dissertation_EX2_EP,1,167,2022-02-23T19:54:28+00:00,1.840646982193,3,Pure_Forward.csv,READVersionA.csv,"Read Pure F A","Read Pure F A",STENCH,SMELL,Study2,F,112,82,Test,User,-,,Recall,Recall2,1706,smell,100,1073,1487,1,1,,1
w10080591,qbzawr9ab8,Nick_Dissertation_EX2_EP,1,168,2022-02-23T19:54:30+00:00,2.1168870925903,3,Pure_Forward.csv,READVersionA.csv,"Read Pure F A","Read Pure F A",MULE,DONKEY,Study2,F,168,77,Test,User,-,,Recall,Recall2,1976,donkey,100,1196,1792,1,1,,1
w10080591,qbzawr9ab8,Nick_Dissertation_EX2_EP,1,169,2022-02-23T19:54:32+00:00,2.3563070297241,3,Pure_Forward.csv,READVersionA.csv,"Read Pure F A","Read Pure F A",DIVISION,MATH,Study2,F,103,61,Test,User,-,,Recall,Recall2,2222,math,100,1667,2038,1,1,,1
w10080591,qbzawr9ab8,Nick_Dissertation_EX2_EP,1,170,2022-02-23T19:54:34+00:00,1.9326100349426,3,Pure_Forward.csv,READVersionA.csv,"Read Pure F A","Read Pure F A",ATTORNEY,LAW,Study2,F,104,73,Test,User,-,,Recall,Recall2,1802,law,100,1475,1639,1,1,,1
w10080591,qbzawr9ab8,Nick_Dissertation_EX2_EP,1,171,2022-02-23T19:54:37+00:00,2.5414178371429,3,Pure_Forward.csv,READVersionA.csv,"Read Pure F A","Read Pure F A",CACTUS,PLANT,Study2,F,158,71,Test,User,-,,Recall,Recall2,2407,plant,100,1021,2092,1,1,,1
w10080591,qbzawr9ab8,Nick_Dissertation_EX2_EP,1,172,2022-02-23T19:54:38+00:00,1.5848469734192,3,Pure_Forward.csv,READVersionA.csv,"Read Pure F A","Read Pure F A",SHOELACE,TIE,Study2,F,159,93,Test,User,-,,Recall,Recall2,1457,tie,100,1155,1348,1,1,,1
w10080591,qbzawr9ab8,Nick_Dissertation_EX2_EP,1,173,2022-02-23T19:54:40+00:00,2.1329460144043,3,Pure_Forward.csv,READVersionA.csv,"Read Pure F A","Read Pure F A",SHEARS,SCISSORS,Study2,F,172,62,Test,User,-,,Recall,Recall2,1993,clear,30.769230769231,1537,1898,0,0,,1
w10080591,qbzawr9ab8,Nick_Dissertation_EX2_EP,1,174,2022-02-23T19:54:43+00:00,2.9154121875763,3,Pure_Forward.csv,READVersionA.csv,"Read Pure F A","Read Pure F A",LATCH,KEY,Study2,F,106,60,Test,User,-,,Recall,Recall2,2787,lock,28.571428571429,2152,2479,0,0,,1
w10080591,qbzawr9ab8,Nick_Dissertation_EX2_EP,1,175,2022-02-23T19:54:45+00:00,1.6542279720306,3,Pure_Forward.csv,READVersionA.csv,"Read Pure F A","Read Pure F A",SEIZE,TAKE,Study2,F,99,89,Test,User,-,,Recall,Recall2,1522,take,100,1131,1427,1,1,,1
w10080591,qbzawr9ab8,Nick_Dissertation_EX2_EP,1,176,2022-02-23T19:54:47+00:00,1.5564210414886,3,Pure_Forward.csv,READVersionA.csv,"Read Pure F A","Read Pure F A",EXTENSION,LONG,Study2,F,156,72,Test,User,-,,Recall,Recall2,1420,long,100,952,1293,1,1,,1
w10080591,qbzawr9ab8,Nick_Dissertation_EX2_EP,1,177,2022-02-23T19:54:48+00:00,1.861888885498,3,Pure_Forward.csv,READVersionA.csv,"Read Pure F A","Read Pure F A",CLUE,GAME,Study2,F,157,90,Test,User,-,,Recall,Recall2,1727,game,100,1334,1645,1,1,,1
w10080591,qbzawr9ab8,Nick_Dissertation_EX2_EP,1,178,2022-02-23T19:54:51+00:00,2.2814168930054,3,Pure_Forward.csv,READVersionA.csv,"Read Pure F A","Read Pure F A",GROWTH,HEIGHT,Study2,F,100,81,Test,User,-,,Recall,Recall2,2154,height,100,1550,2004,1,1,,1
w10080591,qbzawr9ab8,Nick_Dissertation_EX2_EP,1,179,2022-02-23T19:54:54+00:00,2.9215350151062,3,Pure_Forward.csv,READVersionA.csv,"Read Pure F A","Read Pure F A",FEUD,FIGHT,Study2,F,173,67,Test,User,-,,Recall,Recall2,2797,fight,100,2319,2667,1,1,,1
w10080591,qbzawr9ab8,Nick_Dissertation_EX2_EP,1,180,2022-02-23T19:54:55+00:00,1.5988020896912,3,Pure_Forward.csv,READVersionA.csv,"Read Pure F A","Read Pure F A",PILOT,PLANE,Study2,F,114,70,Test,User,-,,Recall,Recall2,1479,plane,100,939,1324,1,1,,1
w10080591,qbzawr9ab8,Nick_Dissertation_EX2_EP,1,181,2022-02-23T19:54:58+00:00,2.3713700771332,3,Pure_Forward.csv,READVersionA.csv,"Read Pure F A","Read Pure F A",CHOP,CUT,Study2,F,167,75,Test,User,-,,Recall,Recall2,2242,cook,28.571428571429,1709,2127,0,0,,1
w10080591,qbzawr9ab8,Nick_Dissertation_EX2_EP,1,182,2022-02-23T19:55:00+00:00,2.1129670143127,3,Pure_Forward.csv,READVersionA.csv,"Read Pure F A","Read Pure F A",CAVE,DARK,Study2,F,98,66,Test,User,-,,Recall,Recall2,1984,dark,100,1508,1819,1,1,,1
w10080591,qbzawr9ab8,Nick_Dissertation_EX2_EP,1,183,2022-02-23T19:55:01+00:00,1.637256860733,3,Pure_Forward.csv,READVersionA.csv,"Read Pure F A","Read Pure F A",CHORE,WORK,Study2,F,109,79,Test,User,-,,Recall,Recall2,1511,work,100,1041,1336,1,1,,1
w10080591,qbzawr9ab8,Nick_Dissertation_EX2_EP,1,184,2022-02-23T19:55:03+00:00,1.4208850860596,3,Pure_Forward.csv,READVersionA.csv,"Read Pure F A","Read Pure F A",DRIVER,CAR,Study2,F,166,63,Test,User,-,,Recall,Recall2,1255,car,100,934,1158,1,1,,1
w10080591,qbzawr9ab8,Nick_Dissertation_EX2_EP,1,185,2022-02-23T19:55:06+00:00,3.644583940506,3,Pure_Forward.csv,READVersionA.csv,"Read Pure F A","Read Pure F A",DOCUMENT,PAPER,Study2,F,169,68,Test,User,-,,Recall,Recall2,3482,words,20,1728,3350,0,0,,1
w10080591,qbzawr9ab8,Nick_Dissertation_EX2_EP,1,186,2022-02-23T19:55:09+00:00,2.2275559902191,3,Pure_Forward.csv,READVersionA.csv,"Read Pure F A","Read Pure F A",DROWSY,SLEEP,Study2,F,111,59,Test,User,-,,Recall,Recall2,2100,sleep,100,880,1335,1,1,,1
w10080591,qbzawr9ab8,Nick_Dissertation_EX2_EP,1,187,2022-02-23T19:55:12+00:00,3.0269291400909,3,Pure_Forward.csv,READVersionA.csv,"Read Pure F A","Read Pure F A",FAMINE,HUNGER,Study2,F,110,64,Test,User,-,,Recall,Recall2,2891,hungry,83.333333333333,1188,2707,0,1,,1
w10080591,qbzawr9ab8,Nick_Dissertation_EX2_EP,1,188,2022-02-23T19:55:14+00:00,2.3607759475708,3,Pure_Forward.csv,READVersionA.csv,"Read Pure F A","Read Pure F A",WORD,SENTENCE,Study2,F,101,69,Test,User,-,,Recall,Recall2,2233,sentence,100,1237,1994,1,1,,1
w10080591,qbzawr9ab8,Nick_Dissertation_EX2_EP,1,189,2022-02-23T19:55:16+00:00,1.4583170413971,3,Pure_Forward.csv,READVersionA.csv,"Read Pure F A","Read Pure F A",,,,,,0,Instruct,User,-,"You have completed this section. Please press Enter.",,Instruct7,1332,,,-1,-1,,,,1
w10080591,qbzawr9ab8,Nick_Dissertation_EX2_EP,1,190,2022-02-23T19:55:18+00:00,2.211464881897,3,Pure_Forward.csv,READVersionA.csv,"Read Pure F A","Read Pure F A",,,,,,0,Instruct,User,-,"The following screen will ask you a few questions abour your experience today. You must complete these questions to receive credit.",,Instruct8,2085,,,-1,-1,,,,1
