Username,ID,ExperimentName,Session,Trial,Date,TimeDif,"Condition Number","Stimuli File","Order File","Condition Description","Condition Notes",Stimuli*Cue,Stimuli*Answer,Stimuli*Shuffle,"Stimuli*Stimuli Notes",Stimuli*Value,Procedure*Item,"Procedure*Trial Type","Procedure*Max Time","Procedure*Min Time",Procedure*Text,"Procedure*Procedure Notes",Procedure*Shuffle,Response*RT,Response*Response,Response*Accuracy,Response*RTfirst,Response*RTlast,Response*strictAcc,Response*lenientAcc,Response*focus,Response*Focus
M20289928_HAW,zkl3rxubcc,Nick_Dissertation_EX2_EP_MSU_TEXAS,1,1,2022-11-23T21:35:10+00:00,11.734319925308,4,Pure_Forward.csv,READVersionB.csv,"Read Pure F B","Read Pure F B",,,,,,0,Instruct,-,10,"Please study each of the following word pairs. Remember that your memory will be tested! Each pair will be displayed on the computer screen and will automatically advance to the next pair. Press ENTER when you are ready to begin.",Initial_Instruct,Instruct1,11339,,,-1,-1,,,,1
M20289928_HAW,zkl3rxubcc,Nick_Dissertation_EX2_EP_MSU_TEXAS,1,2,2022-11-23T21:35:19+00:00,8.591924905777,4,Pure_Forward.csv,READVersionB.csv,"Read Pure F B","Read Pure F B",CAMP,ADVENTURE,BUFFER3,Buffer,95,55,STUDY,8,8,,Study/JOL,BUFFER,8012,,,-1,-1,,,,1
M20289928_HAW,zkl3rxubcc,Nick_Dissertation_EX2_EP_MSU_TEXAS,1,3,2022-11-23T21:35:28+00:00,8.54731798172,4,Pure_Forward.csv,READVersionB.csv,"Read Pure F B","Read Pure F B",CARROT,POTATO,BUFFER3,Buffer,91,53,STUDY,8,8,,Study/JOL,BUFFER,8008,,,-1,-1,,,,1
M20289928_HAW,zkl3rxubcc,Nick_Dissertation_EX2_EP_MSU_TEXAS,1,4,2022-11-23T21:35:36+00:00,8.5573902130127,4,Pure_Forward.csv,READVersionB.csv,"Read Pure F B","Read Pure F B",NOODLE,STRING,BUFFER3,Buffer,92,54,STUDY,8,8,,Study/JOL,BUFFER,8049,,,-1,-1,,,,1
M20289928_HAW,zkl3rxubcc,Nick_Dissertation_EX2_EP_MSU_TEXAS,1,5,2022-11-23T21:35:45+00:00,8.7975130081177,4,Pure_Forward.csv,READVersionB.csv,"Read Pure F B","Read Pure F B",ICE,FROZEN,BUFFER3,Buffer,94,52,STUDY,8,8,,Study/JOL,BUFFER,8030,,,-1,-1,,,,1
M20289928_HAW,zkl3rxubcc,Nick_Dissertation_EX2_EP_MSU_TEXAS,1,6,2022-11-23T21:35:53+00:00,8.5964238643646,4,Pure_Forward.csv,READVersionB.csv,"Read Pure F B","Read Pure F B",SHRIMP,FISH,BUFFER3,Buffer,93,56,STUDY,8,8,,Study/JOL,BUFFER,8035,,,-1,-1,,,,1
M20289928_HAW,zkl3rxubcc,Nick_Dissertation_EX2_EP_MSU_TEXAS,1,7,2022-11-23T21:36:02+00:00,8.5948860645294,4,Pure_Forward.csv,READVersionB.csv,"Read Pure F B","Read Pure F B",INCENSE,SMELL,Study2,F,170,76,STUDY,8,8,,Study/JOL,"Study Phase",8024,,,-1,-1,,,,0.95
M20289928_HAW,zkl3rxubcc,Nick_Dissertation_EX2_EP_MSU_TEXAS,1,8,2022-11-23T21:36:11+00:00,8.748615026474,4,Pure_Forward.csv,READVersionB.csv,"Read Pure F B","Read Pure F B",DROWSY,SLEEP,Study2,F,111,73,STUDY,8,8,,Study/JOL,"Study Phase",8021,,,-1,-1,,,,1
M20289928_HAW,zkl3rxubcc,Nick_Dissertation_EX2_EP_MSU_TEXAS,1,9,2022-11-23T21:36:20+00:00,8.7883050441742,4,Pure_Forward.csv,READVersionB.csv,"Read Pure F B","Read Pure F B",DRIVER,CAR,Study2,F,166,61,STUDY,8,8,,Study/JOL,"Study Phase",8025,,,-1,-1,,,,1
M20289928_HAW,zkl3rxubcc,Nick_Dissertation_EX2_EP_MSU_TEXAS,1,10,2022-11-23T21:36:28+00:00,8.5761659145355,4,Pure_Forward.csv,READVersionB.csv,"Read Pure F B","Read Pure F B",ADJOURN,END,Study2,F,161,63,STUDY,8,8,,Study/JOL,"Study Phase",8028,,,-1,-1,,,,1
M20289928_HAW,zkl3rxubcc,Nick_Dissertation_EX2_EP_MSU_TEXAS,1,11,2022-11-23T21:36:37+00:00,8.6500499248505,4,Pure_Forward.csv,READVersionB.csv,"Read Pure F B","Read Pure F B",RACKET,BALL,Study2,F,108,88,STUDY,8,8,,Study/JOL,"Study Phase",8011,,,-1,-1,,,,1
M20289928_HAW,zkl3rxubcc,Nick_Dissertation_EX2_EP_MSU_TEXAS,1,12,2022-11-23T21:36:45+00:00,8.6602809429169,4,Pure_Forward.csv,READVersionB.csv,"Read Pure F B","Read Pure F B",CAVE,DARK,Study2,F,98,90,STUDY,8,8,,Study/JOL,"Study Phase",8012,,,-1,-1,,,,1
M20289928_HAW,zkl3rxubcc,Nick_Dissertation_EX2_EP_MSU_TEXAS,1,13,2022-11-23T21:36:54+00:00,8.7113311290741,4,Pure_Forward.csv,READVersionB.csv,"Read Pure F B","Read Pure F B",CHILI,HOT,Study2,F,107,84,STUDY,8,8,,Study/JOL,"Study Phase",8013,,,-1,-1,,,,1
M20289928_HAW,zkl3rxubcc,Nick_Dissertation_EX2_EP_MSU_TEXAS,1,14,2022-11-23T21:37:03+00:00,8.8170878887177,4,Pure_Forward.csv,READVersionB.csv,"Read Pure F B","Read Pure F B",PILOT,PLANE,Study2,F,114,65,STUDY,8,8,,Study/JOL,"Study Phase",8016,,,-1,-1,,,,0.6
M20289928_HAW,zkl3rxubcc,Nick_Dissertation_EX2_EP_MSU_TEXAS,1,15,2022-11-23T21:37:12+00:00,8.6918921470642,4,Pure_Forward.csv,READVersionB.csv,"Read Pure F B","Read Pure F B",DOCUMENT,PAPER,Study2,F,169,57,STUDY,8,8,,Study/JOL,"Study Phase",8011,,,-1,-1,,,,1
M20289928_HAW,zkl3rxubcc,Nick_Dissertation_EX2_EP_MSU_TEXAS,1,16,2022-11-23T21:37:20+00:00,8.6466040611267,4,Pure_Forward.csv,READVersionB.csv,"Read Pure F B","Read Pure F B",CHORE,WORK,Study2,F,109,59,STUDY,8,8,,Study/JOL,"Study Phase",8014,,,-1,-1,,,,1
M20289928_HAW,zkl3rxubcc,Nick_Dissertation_EX2_EP_MSU_TEXAS,1,17,2022-11-23T21:37:29+00:00,8.6986308097839,4,Pure_Forward.csv,READVersionB.csv,"Read Pure F B","Read Pure F B",FURRY,DOG,Study2,F,162,78,STUDY,8,8,,Study/JOL,"Study Phase",8005,,,-1,-1,,,,0.615
M20289928_HAW,zkl3rxubcc,Nick_Dissertation_EX2_EP_MSU_TEXAS,1,18,2022-11-23T21:37:38+00:00,8.6832931041718,4,Pure_Forward.csv,READVersionB.csv,"Read Pure F B","Read Pure F B",STENCH,SMELL,Study2,F,112,95,STUDY,8,8,,Study/JOL,"Study Phase",8043,,,-1,-1,,,,1
M20289928_HAW,zkl3rxubcc,Nick_Dissertation_EX2_EP_MSU_TEXAS,1,19,2022-11-23T21:37:46+00:00,8.4891109466553,4,Pure_Forward.csv,READVersionB.csv,"Read Pure F B","Read Pure F B",BALLOON,POP,Study1,F,73,23,STUDY,8,8,,Study/JOL,"Study Phase",8016,,,-1,-1,,,,1
M20289928_HAW,zkl3rxubcc,Nick_Dissertation_EX2_EP_MSU_TEXAS,1,20,2022-11-23T21:37:55+00:00,8.5754580497742,4,Pure_Forward.csv,READVersionB.csv,"Read Pure F B","Read Pure F B",ATTIRE,CLOTHES,Study2,F,113,93,STUDY,8,8,,Study/JOL,"Study Phase",8005,,,-1,-1,,,,1
M20289928_HAW,zkl3rxubcc,Nick_Dissertation_EX2_EP_MSU_TEXAS,1,21,2022-11-23T21:38:03+00:00,8.6494870185852,4,Pure_Forward.csv,READVersionB.csv,"Read Pure F B","Read Pure F B",SCALP,HEAD,Study2,F,165,67,STUDY,8,8,,Study/JOL,"Study Phase",8028,,,-1,-1,,,,1
M20289928_HAW,zkl3rxubcc,Nick_Dissertation_EX2_EP_MSU_TEXAS,1,22,2022-11-23T21:38:12+00:00,8.5122199058533,4,Pure_Forward.csv,READVersionB.csv,"Read Pure F B","Read Pure F B",ATTORNEY,LAW,Study2,F,104,81,STUDY,8,8,,Study/JOL,"Study Phase",8013,,,-1,-1,,,,0.077
M20289928_HAW,zkl3rxubcc,Nick_Dissertation_EX2_EP_MSU_TEXAS,1,23,2022-11-23T21:38:21+00:00,8.6691911220551,4,Pure_Forward.csv,READVersionB.csv,"Read Pure F B","Read Pure F B",CHORE,WORK,Study2,F,109,59,STUDY,8,8,,Study/JOL,"Study Phase",8025,,,-1,-1,,,,0
M20289928_HAW,zkl3rxubcc,Nick_Dissertation_EX2_EP_MSU_TEXAS,1,24,2022-11-23T21:38:29+00:00,8.5261130332947,4,Pure_Forward.csv,READVersionB.csv,"Read Pure F B","Read Pure F B",FEUD,FIGHT,Study2,F,173,64,STUDY,8,8,,Study/JOL,"Study Phase",8006,,,-1,-1,,,,0
M20289928_HAW,zkl3rxubcc,Nick_Dissertation_EX2_EP_MSU_TEXAS,1,25,2022-11-23T21:38:38+00:00,8.7147388458252,4,Pure_Forward.csv,READVersionB.csv,"Read Pure F B","Read Pure F B",LATCH,KEY,Study2,F,106,80,STUDY,8,8,,Study/JOL,"Study Phase",8012,,,-1,-1,,,,0.9
M20289928_HAW,zkl3rxubcc,Nick_Dissertation_EX2_EP_MSU_TEXAS,1,26,2022-11-23T21:38:46+00:00,8.5309660434723,4,Pure_Forward.csv,READVersionB.csv,"Read Pure F B","Read Pure F B",CHERRY,RED,Study2,F,164,77,STUDY,8,8,,Study/JOL,"Study Phase",8008,,,-1,-1,,,,1
M20289928_HAW,zkl3rxubcc,Nick_Dissertation_EX2_EP_MSU_TEXAS,1,27,2022-11-23T21:38:55+00:00,8.6503970623016,4,Pure_Forward.csv,READVersionB.csv,"Read Pure F B","Read Pure F B",SHEARS,SCISSORS,Study2,F,172,70,STUDY,8,8,,Study/JOL,"Study Phase",8022,,,-1,-1,,,,1
M20289928_HAW,zkl3rxubcc,Nick_Dissertation_EX2_EP_MSU_TEXAS,1,28,2022-11-23T21:39:04+00:00,8.5542850494385,4,Pure_Forward.csv,READVersionB.csv,"Read Pure F B","Read Pure F B",SHOELACE,TIE,Study2,F,159,69,STUDY,8,8,,Study/JOL,"Study Phase",8020,,,-1,-1,,,,1
M20289928_HAW,zkl3rxubcc,Nick_Dissertation_EX2_EP_MSU_TEXAS,1,29,2022-11-23T21:39:12+00:00,8.5155019760132,4,Pure_Forward.csv,READVersionB.csv,"Read Pure F B","Read Pure F B",CACTUS,PLANT,Study2,F,158,62,STUDY,8,8,,Study/JOL,"Study Phase",8006,,,-1,-1,,,,1
M20289928_HAW,zkl3rxubcc,Nick_Dissertation_EX2_EP_MSU_TEXAS,1,30,2022-11-23T21:39:21+00:00,8.4993259906769,4,Pure_Forward.csv,READVersionB.csv,"Read Pure F B","Read Pure F B",DIVISION,MATH,Study2,F,103,75,STUDY,8,8,,Study/JOL,"Study Phase",8007,,,-1,-1,,,,1
M20289928_HAW,zkl3rxubcc,Nick_Dissertation_EX2_EP_MSU_TEXAS,1,31,2022-11-23T21:39:29+00:00,8.6624238491058,4,Pure_Forward.csv,READVersionB.csv,"Read Pure F B","Read Pure F B",WORD,SENTENCE,Study2,F,101,79,STUDY,8,8,,Study/JOL,"Study Phase",8009,,,-1,-1,,,,1
M20289928_HAW,zkl3rxubcc,Nick_Dissertation_EX2_EP_MSU_TEXAS,1,32,2022-11-23T21:39:38+00:00,8.6283149719238,4,Pure_Forward.csv,READVersionB.csv,"Read Pure F B","Read Pure F B",FAMINE,HUNGER,Study2,F,110,87,STUDY,8,8,,Study/JOL,"Study Phase",8030,,,-1,-1,,,,0.605
M20289928_HAW,zkl3rxubcc,Nick_Dissertation_EX2_EP_MSU_TEXAS,1,33,2022-11-23T21:39:47+00:00,8.6746661663055,4,Pure_Forward.csv,READVersionB.csv,"Read Pure F B","Read Pure F B",BLAZE,FIRE,Study2,F,115,94,STUDY,8,8,,Study/JOL,"Study Phase",8013,,,-1,-1,,,,1
M20289928_HAW,zkl3rxubcc,Nick_Dissertation_EX2_EP_MSU_TEXAS,1,34,2022-11-23T21:39:55+00:00,8.6229259967804,4,Pure_Forward.csv,READVersionB.csv,"Read Pure F B","Read Pure F B",GROWTH,HEIGHT,Study2,F,100,86,STUDY,8,8,,Study/JOL,"Study Phase",8010,,,-1,-1,,,,1
M20289928_HAW,zkl3rxubcc,Nick_Dissertation_EX2_EP_MSU_TEXAS,1,35,2022-11-23T21:40:04+00:00,8.662966966629,4,Pure_Forward.csv,READVersionB.csv,"Read Pure F B","Read Pure F B",CHOP,CUT,Study2,F,167,91,STUDY,8,8,,Study/JOL,"Study Phase",8008,,,-1,-1,,,,1
M20289928_HAW,zkl3rxubcc,Nick_Dissertation_EX2_EP_MSU_TEXAS,1,36,2022-11-23T21:40:13+00:00,8.6477720737457,4,Pure_Forward.csv,READVersionB.csv,"Read Pure F B","Read Pure F B",EXTENSION,LONG,Study2,F,156,85,STUDY,8,8,,Study/JOL,"Study Phase",8003,,,-1,-1,,,,1
M20289928_HAW,zkl3rxubcc,Nick_Dissertation_EX2_EP_MSU_TEXAS,1,37,2022-11-23T21:40:21+00:00,8.7804398536682,4,Pure_Forward.csv,READVersionB.csv,"Read Pure F B","Read Pure F B",MULE,DONKEY,Study2,F,168,66,STUDY,8,8,,Study/JOL,"Study Phase",8010,,,-1,-1,,,,1
M20289928_HAW,zkl3rxubcc,Nick_Dissertation_EX2_EP_MSU_TEXAS,1,38,2022-11-23T21:40:30+00:00,8.7203900814056,4,Pure_Forward.csv,READVersionB.csv,"Read Pure F B","Read Pure F B",SEIZE,TAKE,Study2,F,99,60,STUDY,8,8,,Study/JOL,"Study Phase",8009,,,-1,-1,,,,1
M20289928_HAW,zkl3rxubcc,Nick_Dissertation_EX2_EP_MSU_TEXAS,1,39,2022-11-23T21:40:39+00:00,8.7015240192413,4,Pure_Forward.csv,READVersionB.csv,"Read Pure F B","Read Pure F B",FANTASTIC,GREAT,Study2,F,105,82,STUDY,8,8,,Study/JOL,"Study Phase",8016,,,-1,-1,,,,1
M20289928_HAW,zkl3rxubcc,Nick_Dissertation_EX2_EP_MSU_TEXAS,1,40,2022-11-23T21:40:47+00:00,8.736809015274,4,Pure_Forward.csv,READVersionB.csv,"Read Pure F B","Read Pure F B",CHILL,COLD,Study2,F,174,92,STUDY,8,8,,Study/JOL,"Study Phase",8017,,,-1,-1,,,,0
M20289928_HAW,zkl3rxubcc,Nick_Dissertation_EX2_EP_MSU_TEXAS,1,41,2022-11-23T21:40:56+00:00,8.4569449424744,4,Pure_Forward.csv,READVersionB.csv,"Read Pure F B","Read Pure F B",LITTER,TRASH,Study2,F,163,68,STUDY,8,8,,Study/JOL,"Study Phase",8026,,,-1,-1,,,,0
M20289928_HAW,zkl3rxubcc,Nick_Dissertation_EX2_EP_MSU_TEXAS,1,42,2022-11-23T21:41:05+00:00,8.5950191020966,4,Pure_Forward.csv,READVersionB.csv,"Read Pure F B","Read Pure F B",SIP,DRINK,Study2,F,97,71,STUDY,8,8,,Study/JOL,"Study Phase",8025,,,-1,-1,,,,0
M20289928_HAW,zkl3rxubcc,Nick_Dissertation_EX2_EP_MSU_TEXAS,1,43,2022-11-23T21:41:13+00:00,8.7279238700867,4,Pure_Forward.csv,READVersionB.csv,"Read Pure F B","Read Pure F B",ENOUGH,FULL,Study2,F,96,74,STUDY,8,8,,Study/JOL,"Study Phase",8009,,,-1,-1,,,,0.65
M20289928_HAW,zkl3rxubcc,Nick_Dissertation_EX2_EP_MSU_TEXAS,1,44,2022-11-23T21:41:22+00:00,8.6766149997711,4,Pure_Forward.csv,READVersionB.csv,"Read Pure F B","Read Pure F B",AFFECTION,LOVE,Study2,F,175,89,STUDY,8,8,,Study/JOL,"Study Phase",8020,,,-1,-1,,,,1
M20289928_HAW,zkl3rxubcc,Nick_Dissertation_EX2_EP_MSU_TEXAS,1,45,2022-11-23T21:41:31+00:00,8.6341030597687,4,Pure_Forward.csv,READVersionB.csv,"Read Pure F B","Read Pure F B",CLUE,GAME,Study2,F,157,72,STUDY,8,8,,Study/JOL,"Study Phase",8008,,,-1,-1,,,,1
M20289928_HAW,zkl3rxubcc,Nick_Dissertation_EX2_EP_MSU_TEXAS,1,46,2022-11-23T21:41:39+00:00,8.6868379116058,4,Pure_Forward.csv,READVersionB.csv,"Read Pure F B","Read Pure F B",WASP,BUG,Study2,F,102,96,STUDY,8,8,,Study/JOL,"Study Phase",8026,,,-1,-1,,,,1
M20289928_HAW,zkl3rxubcc,Nick_Dissertation_EX2_EP_MSU_TEXAS,1,47,2022-11-23T21:41:48+00:00,8.53360414505,4,Pure_Forward.csv,READVersionB.csv,"Read Pure F B","Read Pure F B",DAYS,WEEKS,BUFFER4,Buffer,176,99,STUDY,8,8,,Study/JOL,BUFFER2,8027,,,-1,-1,,,,1
M20289928_HAW,zkl3rxubcc,Nick_Dissertation_EX2_EP_MSU_TEXAS,1,48,2022-11-23T21:41:56+00:00,8.5487380027771,4,Pure_Forward.csv,READVersionB.csv,"Read Pure F B","Read Pure F B",SPRING,MARCH,BUFFER4,Buffer,179,98,STUDY,8,8,,Study/JOL,BUFFER2,8008,,,-1,-1,,,,1
M20289928_HAW,zkl3rxubcc,Nick_Dissertation_EX2_EP_MSU_TEXAS,1,49,2022-11-23T21:42:05+00:00,8.7904329299927,4,Pure_Forward.csv,READVersionB.csv,"Read Pure F B","Read Pure F B",OCTOBER,SPOOKY,BUFFER4,Buffer,180,101,STUDY,8,8,,Study/JOL,BUFFER2,8021,,,-1,-1,,,,1
M20289928_HAW,zkl3rxubcc,Nick_Dissertation_EX2_EP_MSU_TEXAS,1,50,2022-11-23T21:42:14+00:00,8.597109079361,4,Pure_Forward.csv,READVersionB.csv,"Read Pure F B","Read Pure F B",MONTH,YEAR,BUFFER4,Buffer,177,100,STUDY,8,8,,Study/JOL,BUFFER2,8054,,,-1,-1,,,,1
M20289928_HAW,zkl3rxubcc,Nick_Dissertation_EX2_EP_MSU_TEXAS,1,51,2022-11-23T21:42:22+00:00,8.654501914978,4,Pure_Forward.csv,READVersionB.csv,"Read Pure F B","Read Pure F B",TOOL,SHED,BUFFER4,Buffer,178,97,STUDY,8,8,,Study/JOL,BUFFER2,8007,,,-1,-1,,,,1
M20289928_HAW,zkl3rxubcc,Nick_Dissertation_EX2_EP_MSU_TEXAS,1,52,2022-11-23T21:42:26+00:00,3.4622089862823,4,Pure_Forward.csv,READVersionB.csv,"Read Pure F B","Read Pure F B",,,,,,0,Instruct,User,-,"You have completed this section. Please press Enter.",Filler_Instruction,Instruct2,2976,,,-1,-1,,,,1
M20289928_HAW,zkl3rxubcc,Nick_Dissertation_EX2_EP_MSU_TEXAS,1,53,2022-11-23T21:44:26+00:00,120.65670108795,4,Pure_Forward.csv,READVersionB.csv,"Read Pure F B","Read Pure F B",,,,,,0,FreeRecall,120,120,"Please list the 50 US states in alphabetical order. The task will automatically advance to the next screen after two minutes.",,Filler1,120013,"Alabama, Alaska, Arizona, Arkansas, California, Colorado, Connecticut, Delaware, Florida, Georgia, Hawaii, Idaho, Iowa, Kansas, Kentucky, Louisiana, Maine, Maryland, Massachusetts, Michigan, Mi",0,35864,119928,0,0,,0.868
M20289928_HAW,zkl3rxubcc,Nick_Dissertation_EX2_EP_MSU_TEXAS,1,54,2022-11-23T21:44:42+00:00,15.625591993332,4,Pure_Forward.csv,READVersionB.csv,"Read Pure F B","Read Pure F B",,,,,,0,Instruct,-,10,"You will now be presented with the first word from each of the previously studied item pairs. Please type the missing word. If you do not know the word, you may guess or press Enter to skip forward to the next pair.",,Instruct3,14988,,,-1,-1,,,,0.946
M20289928_HAW,zkl3rxubcc,Nick_Dissertation_EX2_EP_MSU_TEXAS,1,55,2022-11-23T21:44:47+00:00,5.258505821228,4,Pure_Forward.csv,READVersionB.csv,"Read Pure F B","Read Pure F B",CAVE,DARK,Study2,F,98,90,Test,User,-,,Recall,Recall1,4787,Adventure,30.769230769231,2742,4458,0,0,,1
M20289928_HAW,zkl3rxubcc,Nick_Dissertation_EX2_EP_MSU_TEXAS,1,56,2022-11-23T21:44:59+00:00,11.742104053497,4,Pure_Forward.csv,READVersionB.csv,"Read Pure F B","Read Pure F B",SCALP,HEAD,Study2,F,165,67,Test,User,-,,Recall,Recall1,11204,Itch,25,10063,10919,0,0,,1
M20289928_HAW,zkl3rxubcc,Nick_Dissertation_EX2_EP_MSU_TEXAS,1,57,2022-11-23T21:45:08+00:00,8.4357120990753,4,Pure_Forward.csv,READVersionB.csv,"Read Pure F B","Read Pure F B",CHILL,COLD,Study2,F,174,92,Test,User,-,,Recall,Recall1,7859,Ice,28.571428571429,7193,7638,0,0,,1
M20289928_HAW,zkl3rxubcc,Nick_Dissertation_EX2_EP_MSU_TEXAS,1,58,2022-11-23T21:45:11+00:00,3.2168998718262,4,Pure_Forward.csv,READVersionB.csv,"Read Pure F B","Read Pure F B",INCENSE,SMELL,Study2,F,170,76,Test,User,-,,Recall,Recall1,2586,Smell,100,1758,2351,1,1,,1
M20289928_HAW,zkl3rxubcc,Nick_Dissertation_EX2_EP_MSU_TEXAS,1,59,2022-11-23T21:45:16+00:00,5.161365032196,4,Pure_Forward.csv,READVersionB.csv,"Read Pure F B","Read Pure F B",FEUD,FIGHT,Study2,F,173,64,Test,User,-,,Recall,Recall1,4646,Enemy,0,3598,4477,0,0,,1
M20289928_HAW,zkl3rxubcc,Nick_Dissertation_EX2_EP_MSU_TEXAS,1,60,2022-11-23T21:45:18+00:00,2.419016122818,4,Pure_Forward.csv,READVersionB.csv,"Read Pure F B","Read Pure F B",FURRY,DOG,Study2,F,162,78,Test,User,-,,Recall,Recall1,1953,,0,-1,-1,0,0,,1
M20289928_HAW,zkl3rxubcc,Nick_Dissertation_EX2_EP_MSU_TEXAS,1,61,2022-11-23T21:45:24+00:00,5.7160859107971,4,Pure_Forward.csv,READVersionB.csv,"Read Pure F B","Read Pure F B",CACTUS,PLANT,Study2,F,158,62,Test,User,-,,Recall,Recall1,5190,Prickly,33.333333333333,3489,5040,0,0,,1
M20289928_HAW,zkl3rxubcc,Nick_Dissertation_EX2_EP_MSU_TEXAS,1,62,2022-11-23T21:45:27+00:00,2.4603519439697,4,Pure_Forward.csv,READVersionB.csv,"Read Pure F B","Read Pure F B",ATTORNEY,LAW,Study2,F,104,81,Test,User,-,,Recall,Recall1,1987,Law,100,1520,1874,1,1,,1
M20289928_HAW,zkl3rxubcc,Nick_Dissertation_EX2_EP_MSU_TEXAS,1,63,2022-11-23T21:45:29+00:00,2.2016799449921,4,Pure_Forward.csv,READVersionB.csv,"Read Pure F B","Read Pure F B",FANTASTIC,GREAT,Study2,F,105,82,Test,User,-,,Recall,Recall1,1731,,0,-1,-1,0,0,,1
M20289928_HAW,zkl3rxubcc,Nick_Dissertation_EX2_EP_MSU_TEXAS,1,64,2022-11-23T21:45:30+00:00,1.5079271793365,4,Pure_Forward.csv,READVersionB.csv,"Read Pure F B","Read Pure F B",SIP,DRINK,Study2,F,97,71,Test,User,-,,Recall,Recall1,1036,,0,-1,-1,0,0,,1
M20289928_HAW,zkl3rxubcc,Nick_Dissertation_EX2_EP_MSU_TEXAS,1,65,2022-11-23T21:45:33+00:00,3.2212238311768,4,Pure_Forward.csv,READVersionB.csv,"Read Pure F B","Read Pure F B",LITTER,TRASH,Study2,F,163,68,Test,User,-,,Recall,Recall1,2566,Clean,20,1678,2320,0,0,,1
M20289928_HAW,zkl3rxubcc,Nick_Dissertation_EX2_EP_MSU_TEXAS,1,66,2022-11-23T21:45:36+00:00,2.2719790935516,4,Pure_Forward.csv,READVersionB.csv,"Read Pure F B","Read Pure F B",GROWTH,HEIGHT,Study2,F,100,86,Test,User,-,,Recall,Recall1,1750,,0,-1,-1,0,0,,1
M20289928_HAW,zkl3rxubcc,Nick_Dissertation_EX2_EP_MSU_TEXAS,1,67,2022-11-23T21:45:37+00:00,1.4733650684357,4,Pure_Forward.csv,READVersionB.csv,"Read Pure F B","Read Pure F B",MULE,DONKEY,Study2,F,168,66,Test,User,-,,Recall,Recall1,958,,0,-1,-1,0,0,,1
M20289928_HAW,zkl3rxubcc,Nick_Dissertation_EX2_EP_MSU_TEXAS,1,68,2022-11-23T21:45:40+00:00,2.6420559883118,4,Pure_Forward.csv,READVersionB.csv,"Read Pure F B","Read Pure F B",AFFECTION,LOVE,Study2,F,175,89,Test,User,-,,Recall,Recall1,2153,Love,100,1372,1787,1,1,,1
M20289928_HAW,zkl3rxubcc,Nick_Dissertation_EX2_EP_MSU_TEXAS,1,69,2022-11-23T21:45:42+00:00,2.1489388942719,4,Pure_Forward.csv,READVersionB.csv,"Read Pure F B","Read Pure F B",FAMINE,HUNGER,Study2,F,110,87,Test,User,-,,Recall,Recall1,1624,,0,-1,-1,0,0,,1
M20289928_HAW,zkl3rxubcc,Nick_Dissertation_EX2_EP_MSU_TEXAS,1,70,2022-11-23T21:45:46+00:00,3.629054069519,4,Pure_Forward.csv,READVersionB.csv,"Read Pure F B","Read Pure F B",BLAZE,FIRE,Study2,F,115,94,Test,User,-,,Recall,Recall1,3117,Hot,0,2524,3104,0,0,,1
M20289928_HAW,zkl3rxubcc,Nick_Dissertation_EX2_EP_MSU_TEXAS,1,71,2022-11-23T21:45:47+00:00,1.8361639976501,4,Pure_Forward.csv,READVersionB.csv,"Read Pure F B","Read Pure F B",CHOP,CUT,Study2,F,167,91,Test,User,-,,Recall,Recall1,1246,,0,-1,-1,0,0,,1
M20289928_HAW,zkl3rxubcc,Nick_Dissertation_EX2_EP_MSU_TEXAS,1,72,2022-11-23T21:45:51+00:00,4.0293729305267,4,Pure_Forward.csv,READVersionB.csv,"Read Pure F B","Read Pure F B",STENCH,SMELL,Study2,F,112,95,Test,User,-,,Recall,Recall1,3509,,0,-1,-1,0,0,,1
M20289928_HAW,zkl3rxubcc,Nick_Dissertation_EX2_EP_MSU_TEXAS,1,73,2022-11-23T21:45:54+00:00,2.0813319683075,4,Pure_Forward.csv,READVersionB.csv,"Read Pure F B","Read Pure F B",ADJOURN,END,Study2,F,161,63,Test,User,-,,Recall,Recall1,1563,,0,-1,-1,0,0,,1
M20289928_HAW,zkl3rxubcc,Nick_Dissertation_EX2_EP_MSU_TEXAS,1,74,2022-11-23T21:45:56+00:00,2.0815591812134,4,Pure_Forward.csv,READVersionB.csv,"Read Pure F B","Read Pure F B",EXTENSION,LONG,Study2,F,156,85,Test,User,-,,Recall,Recall1,1532,,0,-1,-1,0,0,,1
M20289928_HAW,zkl3rxubcc,Nick_Dissertation_EX2_EP_MSU_TEXAS,1,75,2022-11-23T21:45:57+00:00,1.6946439743042,4,Pure_Forward.csv,READVersionB.csv,"Read Pure F B","Read Pure F B",DRIVER,CAR,Study2,F,166,61,Test,User,-,,Recall,Recall1,1145,,0,-1,-1,0,0,,1
M20289928_HAW,zkl3rxubcc,Nick_Dissertation_EX2_EP_MSU_TEXAS,1,76,2022-11-23T21:46:00+00:00,2.5722138881683,4,Pure_Forward.csv,READVersionB.csv,"Read Pure F B","Read Pure F B",SHOELACE,TIE,Study2,F,159,69,Test,User,-,,Recall,Recall1,2054,Tie,100,1563,1865,1,1,,1
M20289928_HAW,zkl3rxubcc,Nick_Dissertation_EX2_EP_MSU_TEXAS,1,77,2022-11-23T21:46:02+00:00,1.8810760974884,4,Pure_Forward.csv,READVersionB.csv,"Read Pure F B","Read Pure F B",CLUE,GAME,Study2,F,157,72,Test,User,-,,Recall,Recall1,1373,,0,-1,-1,0,0,,1
M20289928_HAW,zkl3rxubcc,Nick_Dissertation_EX2_EP_MSU_TEXAS,1,78,2022-11-23T21:46:03+00:00,1.3334789276123,4,Pure_Forward.csv,READVersionB.csv,"Read Pure F B","Read Pure F B",DIVISION,MATH,Study2,F,103,75,Test,User,-,,Recall,Recall1,854,,0,-1,-1,0,0,,1
M20289928_HAW,zkl3rxubcc,Nick_Dissertation_EX2_EP_MSU_TEXAS,1,79,2022-11-23T21:46:05+00:00,1.6491549015045,4,Pure_Forward.csv,READVersionB.csv,"Read Pure F B","Read Pure F B",WORD,SENTENCE,Study2,F,101,79,Test,User,-,,Recall,Recall1,1213,,0,-1,-1,0,0,,1
M20289928_HAW,zkl3rxubcc,Nick_Dissertation_EX2_EP_MSU_TEXAS,1,80,2022-11-23T21:46:06+00:00,1.6843550205231,4,Pure_Forward.csv,READVersionB.csv,"Read Pure F B","Read Pure F B",SEIZE,TAKE,Study2,F,99,60,Test,User,-,,Recall,Recall1,1208,,0,-1,-1,0,0,,1
M20289928_HAW,zkl3rxubcc,Nick_Dissertation_EX2_EP_MSU_TEXAS,1,81,2022-11-23T21:46:08+00:00,1.3981029987335,4,Pure_Forward.csv,READVersionB.csv,"Read Pure F B","Read Pure F B",CHERRY,RED,Study2,F,164,77,Test,User,-,,Recall,Recall1,978,,0,-1,-1,0,0,,1
M20289928_HAW,zkl3rxubcc,Nick_Dissertation_EX2_EP_MSU_TEXAS,1,82,2022-11-23T21:46:09+00:00,1.2055602073669,4,Pure_Forward.csv,READVersionB.csv,"Read Pure F B","Read Pure F B",PILOT,PLANE,Study2,F,114,65,Test,User,-,,Recall,Recall1,756,,0,-1,-1,0,0,,1
M20289928_HAW,zkl3rxubcc,Nick_Dissertation_EX2_EP_MSU_TEXAS,1,83,2022-11-23T21:46:12+00:00,2.7923769950867,4,Pure_Forward.csv,READVersionB.csv,"Read Pure F B","Read Pure F B",SHEARS,SCISSORS,Study2,F,172,70,Test,User,-,,Recall,Recall1,2308,Cut,18.181818181818,1764,2112,0,0,,1
M20289928_HAW,zkl3rxubcc,Nick_Dissertation_EX2_EP_MSU_TEXAS,1,84,2022-11-23T21:46:14+00:00,2.0589818954468,4,Pure_Forward.csv,READVersionB.csv,"Read Pure F B","Read Pure F B",RACKET,BALL,Study2,F,108,88,Test,User,-,,Recall,Recall1,1593,,0,-1,-1,0,0,,1
M20289928_HAW,zkl3rxubcc,Nick_Dissertation_EX2_EP_MSU_TEXAS,1,85,2022-11-23T21:46:16+00:00,2.2565689086914,4,Pure_Forward.csv,READVersionB.csv,"Read Pure F B","Read Pure F B",BALLOON,POP,Study1,F,73,23,Test,User,-,,Recall,Recall1,1760,Pop,100,1187,1522,1,1,,1
M20289928_HAW,zkl3rxubcc,Nick_Dissertation_EX2_EP_MSU_TEXAS,1,86,2022-11-23T21:46:20+00:00,3.4378561973572,4,Pure_Forward.csv,READVersionB.csv,"Read Pure F B","Read Pure F B",CHORE,WORK,Study2,F,109,59,Test,User,-,,Recall,Recall1,2917,,0,-1,-1,0,0,,1
M20289928_HAW,zkl3rxubcc,Nick_Dissertation_EX2_EP_MSU_TEXAS,1,87,2022-11-23T21:46:21+00:00,1.7295989990234,4,Pure_Forward.csv,READVersionB.csv,"Read Pure F B","Read Pure F B",WASP,BUG,Study2,F,102,96,Test,User,-,,Recall,Recall1,1252,,0,-1,-1,0,0,,1
M20289928_HAW,zkl3rxubcc,Nick_Dissertation_EX2_EP_MSU_TEXAS,1,88,2022-11-23T21:46:24+00:00,2.4288809299469,4,Pure_Forward.csv,READVersionB.csv,"Read Pure F B","Read Pure F B",ATTIRE,CLOTHES,Study2,F,113,93,Test,User,-,,Recall,Recall1,1992,Wear,18.181818181818,1245,1811,0,0,,1
M20289928_HAW,zkl3rxubcc,Nick_Dissertation_EX2_EP_MSU_TEXAS,1,89,2022-11-23T21:46:25+00:00,1.5139808654785,4,Pure_Forward.csv,READVersionB.csv,"Read Pure F B","Read Pure F B",LATCH,KEY,Study2,F,106,80,Test,User,-,,Recall,Recall1,1041,,0,-1,-1,0,0,,1
M20289928_HAW,zkl3rxubcc,Nick_Dissertation_EX2_EP_MSU_TEXAS,1,90,2022-11-23T21:46:27+00:00,1.6767930984497,4,Pure_Forward.csv,READVersionB.csv,"Read Pure F B","Read Pure F B",CHORE,WORK,Study2,F,109,59,Test,User,-,,Recall,Recall1,1254,,0,-1,-1,0,0,,1
M20289928_HAW,zkl3rxubcc,Nick_Dissertation_EX2_EP_MSU_TEXAS,1,91,2022-11-23T21:46:28+00:00,1.2092750072479,4,Pure_Forward.csv,READVersionB.csv,"Read Pure F B","Read Pure F B",ENOUGH,FULL,Study2,F,96,74,Test,User,-,,Recall,Recall1,716,,0,-1,-1,0,0,,1
M20289928_HAW,zkl3rxubcc,Nick_Dissertation_EX2_EP_MSU_TEXAS,1,92,2022-11-23T21:46:29+00:00,1.055948972702,4,Pure_Forward.csv,READVersionB.csv,"Read Pure F B","Read Pure F B",DROWSY,SLEEP,Study2,F,111,73,Test,User,-,,Recall,Recall1,631,,0,-1,-1,0,0,,1
M20289928_HAW,zkl3rxubcc,Nick_Dissertation_EX2_EP_MSU_TEXAS,1,93,2022-11-23T21:46:32+00:00,2.2983660697937,4,Pure_Forward.csv,READVersionB.csv,"Read Pure F B","Read Pure F B",DOCUMENT,PAPER,Study2,F,169,57,Test,User,-,,Recall,Recall1,1742,,0,-1,-1,0,0,,1
M20289928_HAW,zkl3rxubcc,Nick_Dissertation_EX2_EP_MSU_TEXAS,1,94,2022-11-23T21:46:34+00:00,2.107813835144,4,Pure_Forward.csv,READVersionB.csv,"Read Pure F B","Read Pure F B",CHILI,HOT,Study2,F,107,84,Test,User,-,,Recall,Recall1,1533,,0,-1,-1,0,0,,1
M20289928_HAW,zkl3rxubcc,Nick_Dissertation_EX2_EP_MSU_TEXAS,1,95,2022-11-23T21:46:45+00:00,11.109712123871,4,Pure_Forward.csv,READVersionB.csv,"Read Pure F B","Read Pure F B",,,,,,0,Instruct,-,10,"You will now be presented with a new set of word pairs. Please study each pair. Remember that your memory will be tested! Each pair will be displayed on the computer screen and will automatically advance to the next pair. Press ENTER when you are ready to begin.",Initial_Instruct,Instruct4,10600,,,-1,-1,,,,1
M20289928_HAW,zkl3rxubcc,Nick_Dissertation_EX2_EP_MSU_TEXAS,1,96,2022-11-23T21:46:53+00:00,8.5483219623566,4,Pure_Forward.csv,READVersionB.csv,"Read Pure F B","Read Pure F B",PEANUT,BUTTER,BUFFER1,Buffer,3,3,STUDY,8,8,,Study/JOL,BUFFER3,8014,,,-1,-1,,,,1
M20289928_HAW,zkl3rxubcc,Nick_Dissertation_EX2_EP_MSU_TEXAS,1,97,2022-11-23T21:47:02+00:00,8.5862519741058,4,Pure_Forward.csv,READVersionB.csv,"Read Pure F B","Read Pure F B",SPACE,JAM,BUFFER1,Buffer,5,5,STUDY,8,8,,Study/JOL,BUFFER3,8011,,,-1,-1,,,,1
M20289928_HAW,zkl3rxubcc,Nick_Dissertation_EX2_EP_MSU_TEXAS,1,98,2022-11-23T21:47:10+00:00,8.57759308815,4,Pure_Forward.csv,READVersionB.csv,"Read Pure F B","Read Pure F B",BASEBALL,CATCHER,BUFFER1,Buffer,2,4,STUDY,8,8,,Study/JOL,BUFFER3,8018,,,-1,-1,,,,1
M20289928_HAW,zkl3rxubcc,Nick_Dissertation_EX2_EP_MSU_TEXAS,1,99,2022-11-23T21:47:19+00:00,8.531014919281,4,Pure_Forward.csv,READVersionB.csv,"Read Pure F B","Read Pure F B",TREES,GREEN,BUFFER1,Buffer,1,6,STUDY,8,8,,Study/JOL,BUFFER3,8011,,,-1,-1,,,,1
M20289928_HAW,zkl3rxubcc,Nick_Dissertation_EX2_EP_MSU_TEXAS,1,100,2022-11-23T21:47:27+00:00,8.5078880786896,4,Pure_Forward.csv,READVersionB.csv,"Read Pure F B","Read Pure F B",SCARE,HIDE,BUFFER1,Buffer,4,2,STUDY,8,8,,Study/JOL,BUFFER3,8026,,,-1,-1,,,,1
M20289928_HAW,zkl3rxubcc,Nick_Dissertation_EX2_EP_MSU_TEXAS,1,101,2022-11-23T21:47:36+00:00,8.7167859077454,4,Pure_Forward.csv,READVersionB.csv,"Read Pure F B","Read Pure F B",ORCHID,FLOWER,Study1,F,24,14,STUDY,8,8,,Study/JOL,"Study Phase2",8016,,,-1,-1,,,,1
M20289928_HAW,zkl3rxubcc,Nick_Dissertation_EX2_EP_MSU_TEXAS,1,102,2022-11-23T21:47:45+00:00,8.5930211544037,4,Pure_Forward.csv,READVersionB.csv,"Read Pure F B","Read Pure F B",HYGIENE,CLEAN,Study1,F,17,37,STUDY,8,8,,Study/JOL,"Study Phase2",8043,,,-1,-1,,,,1
M20289928_HAW,zkl3rxubcc,Nick_Dissertation_EX2_EP_MSU_TEXAS,1,103,2022-11-23T21:47:53+00:00,8.5051109790802,4,Pure_Forward.csv,READVersionB.csv,"Read Pure F B","Read Pure F B",EDITOR,NEWS,Study1,F,10,13,STUDY,8,8,,Study/JOL,"Study Phase2",8006,,,-1,-1,,,,1
M20289928_HAW,zkl3rxubcc,Nick_Dissertation_EX2_EP_MSU_TEXAS,1,104,2022-11-23T21:48:02+00:00,8.5294878482819,4,Pure_Forward.csv,READVersionB.csv,"Read Pure F B","Read Pure F B",BALLOON,POP,Study1,F,73,23,STUDY,8,8,,Study/JOL,"Study Phase2",8014,,,-1,-1,,,,1
M20289928_HAW,zkl3rxubcc,Nick_Dissertation_EX2_EP_MSU_TEXAS,1,105,2022-11-23T21:48:10+00:00,8.5108239650726,4,Pure_Forward.csv,READVersionB.csv,"Read Pure F B","Read Pure F B",LEAGUE,BASEBALL,Study1,F,81,32,STUDY,8,8,,Study/JOL,"Study Phase2",8007,,,-1,-1,,,,1
M20289928_HAW,zkl3rxubcc,Nick_Dissertation_EX2_EP_MSU_TEXAS,1,106,2022-11-23T21:48:19+00:00,8.5643751621246,4,Pure_Forward.csv,READVersionB.csv,"Read Pure F B","Read Pure F B",AIRCRAFT,PLANE,Study1,F,79,10,STUDY,8,8,,Study/JOL,"Study Phase2",8018,,,-1,-1,,,,1
M20289928_HAW,zkl3rxubcc,Nick_Dissertation_EX2_EP_MSU_TEXAS,1,107,2022-11-23T21:48:27+00:00,8.5111410617828,4,Pure_Forward.csv,READVersionB.csv,"Read Pure F B","Read Pure F B",CREDIT,CARD,Study1,F,23,38,STUDY,8,8,,Study/JOL,"Study Phase2",8009,,,-1,-1,,,,1
M20289928_HAW,zkl3rxubcc,Nick_Dissertation_EX2_EP_MSU_TEXAS,1,108,2022-11-23T21:48:36+00:00,8.6239860057831,4,Pure_Forward.csv,READVersionB.csv,"Read Pure F B","Read Pure F B",DIGESTION,STOMACH,Study1,F,7,27,STUDY,8,8,,Study/JOL,"Study Phase2",8044,,,-1,-1,,,,1
M20289928_HAW,zkl3rxubcc,Nick_Dissertation_EX2_EP_MSU_TEXAS,1,109,2022-11-23T21:48:45+00:00,8.6686708927155,4,Pure_Forward.csv,READVersionB.csv,"Read Pure F B","Read Pure F B",HERD,COW,Study1,F,22,45,STUDY,8,8,,Study/JOL,"Study Phase2",8041,,,-1,-1,,,,1
M20289928_HAW,zkl3rxubcc,Nick_Dissertation_EX2_EP_MSU_TEXAS,1,110,2022-11-23T21:48:53+00:00,8.496248960495,4,Pure_Forward.csv,READVersionB.csv,"Read Pure F B","Read Pure F B",NAP,SLEEP,Study1,F,84,34,STUDY,8,8,,Study/JOL,"Study Phase2",8013,,,-1,-1,,,,1
M20289928_HAW,zkl3rxubcc,Nick_Dissertation_EX2_EP_MSU_TEXAS,1,111,2022-11-23T21:49:02+00:00,8.4809129238129,4,Pure_Forward.csv,READVersionB.csv,"Read Pure F B","Read Pure F B",SWAN,BIRD,Study1,F,14,25,STUDY,8,8,,Study/JOL,"Study Phase2",8016,,,-1,-1,,,,1
M20289928_HAW,zkl3rxubcc,Nick_Dissertation_EX2_EP_MSU_TEXAS,1,112,2022-11-23T21:49:10+00:00,8.478157043457,4,Pure_Forward.csv,READVersionB.csv,"Read Pure F B","Read Pure F B",SARDINE,FISH,Study1,F,80,12,STUDY,8,8,,Study/JOL,"Study Phase2",8008,,,-1,-1,,,,1
M20289928_HAW,zkl3rxubcc,Nick_Dissertation_EX2_EP_MSU_TEXAS,1,113,2022-11-23T21:49:19+00:00,8.6946949958801,4,Pure_Forward.csv,READVersionB.csv,"Read Pure F B","Read Pure F B",WAGE,MONEY,Study1,F,8,33,STUDY,8,8,,Study/JOL,"Study Phase2",8007,,,-1,-1,,,,1
M20289928_HAW,zkl3rxubcc,Nick_Dissertation_EX2_EP_MSU_TEXAS,1,114,2022-11-23T21:49:27+00:00,8.5097410678864,4,Pure_Forward.csv,READVersionB.csv,"Read Pure F B","Read Pure F B",TRUTHFUL,HONEST,Study1,F,83,26,STUDY,8,8,,Study/JOL,"Study Phase2",8014,,,-1,-1,,,,1
M20289928_HAW,zkl3rxubcc,Nick_Dissertation_EX2_EP_MSU_TEXAS,1,115,2022-11-23T21:49:36+00:00,8.535973072052,4,Pure_Forward.csv,READVersionB.csv,"Read Pure F B","Read Pure F B",PAW,DOG,Study1,F,15,40,STUDY,8,8,,Study/JOL,"Study Phase2",8017,,,-1,-1,,,,1
M20289928_HAW,zkl3rxubcc,Nick_Dissertation_EX2_EP_MSU_TEXAS,1,116,2022-11-23T21:49:45+00:00,8.6181209087372,4,Pure_Forward.csv,READVersionB.csv,"Read Pure F B","Read Pure F B",VILLAIN,BAD,Study1,F,68,8,STUDY,8,8,,Study/JOL,"Study Phase2",8010,,,-1,-1,,,,1
M20289928_HAW,zkl3rxubcc,Nick_Dissertation_EX2_EP_MSU_TEXAS,1,117,2022-11-23T21:49:53+00:00,8.6323549747467,4,Pure_Forward.csv,READVersionB.csv,"Read Pure F B","Read Pure F B",HORNET,STING,Study1,F,11,22,STUDY,8,8,,Study/JOL,"Study Phase2",8007,,,-1,-1,,,,1
M20289928_HAW,zkl3rxubcc,Nick_Dissertation_EX2_EP_MSU_TEXAS,1,118,2022-11-23T21:50:02+00:00,8.5425660610199,4,Pure_Forward.csv,READVersionB.csv,"Read Pure F B","Read Pure F B",BRAWL,FIGHT,Study1,F,85,21,STUDY,8,8,,Study/JOL,"Study Phase2",8010,,,-1,-1,,,,1
M20289928_HAW,zkl3rxubcc,Nick_Dissertation_EX2_EP_MSU_TEXAS,1,119,2022-11-23T21:50:10+00:00,8.5456919670105,4,Pure_Forward.csv,READVersionB.csv,"Read Pure F B","Read Pure F B",WINDSHIELD,CAR,Study1,F,67,24,STUDY,8,8,,Study/JOL,"Study Phase2",8019,,,-1,-1,,,,1
M20289928_HAW,zkl3rxubcc,Nick_Dissertation_EX2_EP_MSU_TEXAS,1,120,2022-11-23T21:50:19+00:00,8.4957909584045,4,Pure_Forward.csv,READVersionB.csv,"Read Pure F B","Read Pure F B",COFFIN,DEAD,Study1,F,78,31,STUDY,8,8,,Study/JOL,"Study Phase2",8020,,,-1,-1,,,,1
M20289928_HAW,zkl3rxubcc,Nick_Dissertation_EX2_EP_MSU_TEXAS,1,121,2022-11-23T21:50:27+00:00,8.5391490459442,4,Pure_Forward.csv,READVersionB.csv,"Read Pure F B","Read Pure F B",DELINQUENT,BAD,Study1,F,6,29,STUDY,8,8,,Study/JOL,"Study Phase2",8021,,,-1,-1,,,,1
M20289928_HAW,zkl3rxubcc,Nick_Dissertation_EX2_EP_MSU_TEXAS,1,122,2022-11-23T21:50:36+00:00,8.5299129486084,4,Pure_Forward.csv,READVersionB.csv,"Read Pure F B","Read Pure F B",DISCUSSION,TALK,Study1,F,21,16,STUDY,8,8,,Study/JOL,"Study Phase2",8014,,,-1,-1,,,,1
M20289928_HAW,zkl3rxubcc,Nick_Dissertation_EX2_EP_MSU_TEXAS,1,123,2022-11-23T21:50:44+00:00,8.5077049732208,4,Pure_Forward.csv,READVersionB.csv,"Read Pure F B","Read Pure F B",ACTRESS,STAR,Study1,F,70,36,STUDY,8,8,,Study/JOL,"Study Phase2",8010,,,-1,-1,,,,1
M20289928_HAW,zkl3rxubcc,Nick_Dissertation_EX2_EP_MSU_TEXAS,1,124,2022-11-23T21:50:53+00:00,8.4656190872192,4,Pure_Forward.csv,READVersionB.csv,"Read Pure F B","Read Pure F B",BREAKABLE,GLASS,Study1,F,77,42,STUDY,8,8,,Study/JOL,"Study Phase2",8019,,,-1,-1,,,,1
M20289928_HAW,zkl3rxubcc,Nick_Dissertation_EX2_EP_MSU_TEXAS,1,125,2022-11-23T21:51:01+00:00,8.5546650886536,4,Pure_Forward.csv,READVersionB.csv,"Read Pure F B","Read Pure F B",FLIP,TURN,Study1,F,66,17,STUDY,8,8,,Study/JOL,"Study Phase2",8022,,,-1,-1,,,,1
M20289928_HAW,zkl3rxubcc,Nick_Dissertation_EX2_EP_MSU_TEXAS,1,126,2022-11-23T21:51:10+00:00,8.543478012085,4,Pure_Forward.csv,READVersionB.csv,"Read Pure F B","Read Pure F B",ROOT,PLANT,Study1,F,13,35,STUDY,8,8,,Study/JOL,"Study Phase2",8017,,,-1,-1,,,,1
M20289928_HAW,zkl3rxubcc,Nick_Dissertation_EX2_EP_MSU_TEXAS,1,127,2022-11-23T21:51:18+00:00,8.6097598075867,4,Pure_Forward.csv,READVersionB.csv,"Read Pure F B","Read Pure F B",THIMBLE,THREAD,Study1,F,71,44,STUDY,8,8,,Study/JOL,"Study Phase2",8017,,,-1,-1,,,,1
M20289928_HAW,zkl3rxubcc,Nick_Dissertation_EX2_EP_MSU_TEXAS,1,128,2022-11-23T21:51:27+00:00,8.5263221263885,4,Pure_Forward.csv,READVersionB.csv,"Read Pure F B","Read Pure F B",TUNA,FISH,Study1,F,25,46,STUDY,8,8,,Study/JOL,"Study Phase2",8016,,,-1,-1,,,,1
M20289928_HAW,zkl3rxubcc,Nick_Dissertation_EX2_EP_MSU_TEXAS,1,129,2022-11-23T21:51:36+00:00,8.5037870407104,4,Pure_Forward.csv,READVersionB.csv,"Read Pure F B","Read Pure F B",BANKER,MONEY,Study1,F,82,41,STUDY,8,8,,Study/JOL,"Study Phase2",8009,,,-1,-1,,,,1
M20289928_HAW,zkl3rxubcc,Nick_Dissertation_EX2_EP_MSU_TEXAS,1,130,2022-11-23T21:51:44+00:00,8.5251200199127,4,Pure_Forward.csv,READVersionB.csv,"Read Pure F B","Read Pure F B",PANTHER,CAT,Study1,F,76,20,STUDY,8,8,,Study/JOL,"Study Phase2",8010,,,-1,-1,,,,1
M20289928_HAW,zkl3rxubcc,Nick_Dissertation_EX2_EP_MSU_TEXAS,1,131,2022-11-23T21:51:53+00:00,8.5563659667969,4,Pure_Forward.csv,READVersionB.csv,"Read Pure F B","Read Pure F B",PENGUIN,BIRD,Study1,F,69,9,STUDY,8,8,,Study/JOL,"Study Phase2",8010,,,-1,-1,,,,1
M20289928_HAW,zkl3rxubcc,Nick_Dissertation_EX2_EP_MSU_TEXAS,1,132,2022-11-23T21:52:01+00:00,8.5852019786835,4,Pure_Forward.csv,READVersionB.csv,"Read Pure F B","Read Pure F B",REVOLUTION,WAR,Study1,F,20,19,STUDY,8,8,,Study/JOL,"Study Phase2",8014,,,-1,-1,,,,1
M20289928_HAW,zkl3rxubcc,Nick_Dissertation_EX2_EP_MSU_TEXAS,1,133,2022-11-23T21:52:10+00:00,8.5055959224701,4,Pure_Forward.csv,READVersionB.csv,"Read Pure F B","Read Pure F B",WAY,OUT,Study1,F,16,15,STUDY,8,8,,Study/JOL,"Study Phase2",8007,,,-1,-1,,,,1
M20289928_HAW,zkl3rxubcc,Nick_Dissertation_EX2_EP_MSU_TEXAS,1,134,2022-11-23T21:52:18+00:00,8.6160509586334,4,Pure_Forward.csv,READVersionB.csv,"Read Pure F B","Read Pure F B",REVENGE,EVEN,Study1,F,72,39,STUDY,8,8,,Study/JOL,"Study Phase2",8010,,,-1,-1,,,,1
M20289928_HAW,zkl3rxubcc,Nick_Dissertation_EX2_EP_MSU_TEXAS,1,135,2022-11-23T21:52:27+00:00,8.6271591186523,4,Pure_Forward.csv,READVersionB.csv,"Read Pure F B","Read Pure F B",GEOLOGY,ROCK,Study1,F,19,18,STUDY,8,8,,Study/JOL,"Study Phase2",8005,,,-1,-1,,,,0.85
M20289928_HAW,zkl3rxubcc,Nick_Dissertation_EX2_EP_MSU_TEXAS,1,136,2022-11-23T21:52:35+00:00,8.4717969894409,4,Pure_Forward.csv,READVersionB.csv,"Read Pure F B","Read Pure F B",BITTER,COLD,Study1,F,12,43,STUDY,8,8,,Study/JOL,"Study Phase2",8032,,,-1,-1,,,,1
M20289928_HAW,zkl3rxubcc,Nick_Dissertation_EX2_EP_MSU_TEXAS,1,137,2022-11-23T21:52:44+00:00,8.489846944809,4,Pure_Forward.csv,READVersionB.csv,"Read Pure F B","Read Pure F B",FAVORITE,BEST,Study1,F,75,28,STUDY,8,8,,Study/JOL,"Study Phase2",8018,,,-1,-1,,,,1
M20289928_HAW,zkl3rxubcc,Nick_Dissertation_EX2_EP_MSU_TEXAS,1,138,2022-11-23T21:52:52+00:00,8.5623071193695,4,Pure_Forward.csv,READVersionB.csv,"Read Pure F B","Read Pure F B",BRIDGE,WATER,Study1,F,18,11,STUDY,8,8,,Study/JOL,"Study Phase2",8007,,,-1,-1,,,,1
M20289928_HAW,zkl3rxubcc,Nick_Dissertation_EX2_EP_MSU_TEXAS,1,139,2022-11-23T21:53:01+00:00,8.5846610069275,4,Pure_Forward.csv,READVersionB.csv,"Read Pure F B","Read Pure F B",CHISEL,HAMMER,Study1,F,9,30,STUDY,8,8,,Study/JOL,"Study Phase2",8011,,,-1,-1,,,,1
M20289928_HAW,zkl3rxubcc,Nick_Dissertation_EX2_EP_MSU_TEXAS,1,140,2022-11-23T21:53:10+00:00,8.513739824295,4,Pure_Forward.csv,READVersionB.csv,"Read Pure F B","Read Pure F B",STRAWBERRY,FRUIT,Study1,F,74,7,STUDY,8,8,,Study/JOL,"Study Phase2",8007,,,-1,-1,,,,1
M20289928_HAW,zkl3rxubcc,Nick_Dissertation_EX2_EP_MSU_TEXAS,1,141,2022-11-23T21:53:18+00:00,8.5035531520844,4,Pure_Forward.csv,READVersionB.csv,"Read Pure F B","Read Pure F B",SHERRIF,POLICE,BUFFER2,Buffer,87,49,STUDY,8,8,,Study/JOL,BUFFER4,8021,,,-1,-1,,,,1
M20289928_HAW,zkl3rxubcc,Nick_Dissertation_EX2_EP_MSU_TEXAS,1,142,2022-11-23T21:53:27+00:00,8.4625899791718,4,Pure_Forward.csv,READVersionB.csv,"Read Pure F B","Read Pure F B",MALT,CHOCOLATE,BUFFER2,Buffer,88,51,STUDY,8,8,,Study/JOL,BUFFER4,8009,,,-1,-1,,,,1
M20289928_HAW,zkl3rxubcc,Nick_Dissertation_EX2_EP_MSU_TEXAS,1,143,2022-11-23T21:53:35+00:00,8.6347720623016,4,Pure_Forward.csv,READVersionB.csv,"Read Pure F B","Read Pure F B",THING,STUFF,BUFFER2,Buffer,90,50,STUDY,8,8,,Study/JOL,BUFFER4,8020,,,-1,-1,,,,1
M20289928_HAW,zkl3rxubcc,Nick_Dissertation_EX2_EP_MSU_TEXAS,1,144,2022-11-23T21:53:44+00:00,8.5802328586578,4,Pure_Forward.csv,READVersionB.csv,"Read Pure F B","Read Pure F B",MOON,SPACE,BUFFER2,Buffer,89,47,STUDY,8,8,,Study/JOL,BUFFER4,8018,,,-1,-1,,,,1
M20289928_HAW,zkl3rxubcc,Nick_Dissertation_EX2_EP_MSU_TEXAS,1,145,2022-11-23T21:53:52+00:00,8.4279220104218,4,Pure_Forward.csv,READVersionB.csv,"Read Pure F B","Read Pure F B",GEESE,GOOSE,BUFFER2,Buffer,86,48,STUDY,8,8,,Study/JOL,BUFFER4,8010,,,-1,-1,,,,1
M20289928_HAW,zkl3rxubcc,Nick_Dissertation_EX2_EP_MSU_TEXAS,1,146,2022-11-23T21:53:55+00:00,2.712660074234,4,Pure_Forward.csv,READVersionB.csv,"Read Pure F B","Read Pure F B",,,,,,0,Instruct,User,-,"You have completed this section. Please press Enter.",Filler_Instruction,Instruct5,2125,,,-1,-1,,,,1
M20289928_HAW,zkl3rxubcc,Nick_Dissertation_EX2_EP_MSU_TEXAS,1,147,2022-11-23T21:55:56+00:00,120.65485596657,4,Pure_Forward.csv,READVersionB.csv,"Read Pure F B","Read Pure F B",,,,,,0,FreeRecall,120,120,"Please list the 50 US states in reverse alphabetical order (z - a). The task will automatically advance to the next screen after two minutes.",,Filler2,120033,"Wyoming, Wisconsin, West Virginia, Washington, Virginia, Vermont, Utah, Texas, Tennessee, South Dakota, South Carolina, Rhode Island, Pennsylvania, Oregon, Oklahoma, Ohio, North Dakota, North Carolina, New York, New Mexico, New ",0,36603,119692,0,0,,0.923
M20289928_HAW,zkl3rxubcc,Nick_Dissertation_EX2_EP_MSU_TEXAS,1,148,2022-11-23T21:56:07+00:00,11.300770044327,4,Pure_Forward.csv,READVersionB.csv,"Read Pure F B","Read Pure F B",,,,,,0,Instruct,-,10,"You will now be presented with the first word from each of the previously studied item pairs. Please type the missing word. If you do not know the word, you may guess or press Enter to skip forward to the next pair.",,Instruct6,10730,,,-1,-1,,,,0.981
M20289928_HAW,zkl3rxubcc,Nick_Dissertation_EX2_EP_MSU_TEXAS,1,149,2022-11-23T21:56:10+00:00,3.42573595047,4,Pure_Forward.csv,READVersionB.csv,"Read Pure F B","Read Pure F B",BRAWL,FIGHT,Study1,F,85,21,Test,User,-,,Recall,Recall2,3029,Fight,100,2281,2807,1,1,,1
M20289928_HAW,zkl3rxubcc,Nick_Dissertation_EX2_EP_MSU_TEXAS,1,150,2022-11-23T21:56:13+00:00,3.1273648738861,4,Pure_Forward.csv,READVersionB.csv,"Read Pure F B","Read Pure F B",ORCHID,FLOWER,Study1,F,24,14,Test,User,-,,Recall,Recall2,2557,Flower,100,1306,2298,1,1,,1
M20289928_HAW,zkl3rxubcc,Nick_Dissertation_EX2_EP_MSU_TEXAS,1,151,2022-11-23T21:56:17+00:00,3.2161891460419,4,Pure_Forward.csv,READVersionB.csv,"Read Pure F B","Read Pure F B",STRAWBERRY,FRUIT,Study1,F,74,7,Test,User,-,,Recall,Recall2,2642,Fruit,100,1731,2388,1,1,,1
M20289928_HAW,zkl3rxubcc,Nick_Dissertation_EX2_EP_MSU_TEXAS,1,152,2022-11-23T21:56:19+00:00,1.9194550514221,4,Pure_Forward.csv,READVersionB.csv,"Read Pure F B","Read Pure F B",ACTRESS,STAR,Study1,F,70,36,Test,User,-,,Recall,Recall2,1470,,0,-1,-1,0,0,,1
M20289928_HAW,zkl3rxubcc,Nick_Dissertation_EX2_EP_MSU_TEXAS,1,153,2022-11-23T21:56:20+00:00,1.5592219829559,4,Pure_Forward.csv,READVersionB.csv,"Read Pure F B","Read Pure F B",SWAN,BIRD,Study1,F,14,25,Test,User,-,,Recall,Recall2,1059,,0,-1,-1,0,0,,1
M20289928_HAW,zkl3rxubcc,Nick_Dissertation_EX2_EP_MSU_TEXAS,1,154,2022-11-23T21:56:23+00:00,2.6576449871063,4,Pure_Forward.csv,READVersionB.csv,"Read Pure F B","Read Pure F B",DELINQUENT,BAD,Study1,F,6,29,Test,User,-,,Recall,Recall2,2086,Law,33.333333333333,1514,1913,0,0,,1
M20289928_HAW,zkl3rxubcc,Nick_Dissertation_EX2_EP_MSU_TEXAS,1,155,2022-11-23T21:56:25+00:00,2.500049829483,4,Pure_Forward.csv,READVersionB.csv,"Read Pure F B","Read Pure F B",CHISEL,HAMMER,Study1,F,9,30,Test,User,-,,Recall,Recall2,2010,Hammer,100,1107,1805,1,1,,1
M20289928_HAW,zkl3rxubcc,Nick_Dissertation_EX2_EP_MSU_TEXAS,1,156,2022-11-23T21:56:27+00:00,1.8332622051239,4,Pure_Forward.csv,READVersionB.csv,"Read Pure F B","Read Pure F B",FAVORITE,BEST,Study1,F,75,28,Test,User,-,,Recall,Recall2,1340,,0,-1,-1,0,0,,1
M20289928_HAW,zkl3rxubcc,Nick_Dissertation_EX2_EP_MSU_TEXAS,1,157,2022-11-23T21:56:30+00:00,2.512090921402,4,Pure_Forward.csv,READVersionB.csv,"Read Pure F B","Read Pure F B",BRIDGE,WATER,Study1,F,18,11,Test,User,-,,Recall,Recall2,1981,Water,100,1153,1776,1,1,,1
M20289928_HAW,zkl3rxubcc,Nick_Dissertation_EX2_EP_MSU_TEXAS,1,158,2022-11-23T21:56:33+00:00,3.0874950885773,4,Pure_Forward.csv,READVersionB.csv,"Read Pure F B","Read Pure F B",DIGESTION,STOMACH,Study1,F,7,27,Test,User,-,,Recall,Recall2,2542,Stomach,100,1399,2309,1,1,,1
M20289928_HAW,zkl3rxubcc,Nick_Dissertation_EX2_EP_MSU_TEXAS,1,159,2022-11-23T21:56:36+00:00,3.4480609893799,4,Pure_Forward.csv,READVersionB.csv,"Read Pure F B","Read Pure F B",BANKER,MONEY,Study1,F,82,41,Test,User,-,,Recall,Recall2,2970,Money,100,2027,2656,1,1,,1
M20289928_HAW,zkl3rxubcc,Nick_Dissertation_EX2_EP_MSU_TEXAS,1,160,2022-11-23T21:56:38+00:00,1.7393507957458,4,Pure_Forward.csv,READVersionB.csv,"Read Pure F B","Read Pure F B",TRUTHFUL,HONEST,Study1,F,83,26,Test,User,-,,Recall,Recall2,1117,,0,-1,-1,0,0,,1
M20289928_HAW,zkl3rxubcc,Nick_Dissertation_EX2_EP_MSU_TEXAS,1,161,2022-11-23T21:56:41+00:00,2.782436132431,4,Pure_Forward.csv,READVersionB.csv,"Read Pure F B","Read Pure F B",WINDSHIELD,CAR,Study1,F,67,24,Test,User,-,,Recall,Recall2,2307,Car,100,1569,2094,1,1,,1
M20289928_HAW,zkl3rxubcc,Nick_Dissertation_EX2_EP_MSU_TEXAS,1,162,2022-11-23T21:56:43+00:00,2.1818969249725,4,Pure_Forward.csv,READVersionB.csv,"Read Pure F B","Read Pure F B",HERD,COW,Study1,F,22,45,Test,User,-,,Recall,Recall2,1687,Cow,100,1160,1431,1,1,,1
M20289928_HAW,zkl3rxubcc,Nick_Dissertation_EX2_EP_MSU_TEXAS,1,163,2022-11-23T21:56:44+00:00,1.6645350456238,4,Pure_Forward.csv,READVersionB.csv,"Read Pure F B","Read Pure F B",REVOLUTION,WAR,Study1,F,20,19,Test,User,-,,Recall,Recall2,1161,,0,-1,-1,0,0,,1
M20289928_HAW,zkl3rxubcc,Nick_Dissertation_EX2_EP_MSU_TEXAS,1,164,2022-11-23T21:56:48+00:00,3.1431949138641,4,Pure_Forward.csv,READVersionB.csv,"Read Pure F B","Read Pure F B",BITTER,COLD,Study1,F,12,43,Test,User,-,,Recall,Recall2,2639,Sweet,0,1746,2463,0,0,,1
M20289928_HAW,zkl3rxubcc,Nick_Dissertation_EX2_EP_MSU_TEXAS,1,165,2022-11-23T21:56:50+00:00,2.201858997345,4,Pure_Forward.csv,READVersionB.csv,"Read Pure F B","Read Pure F B",THIMBLE,THREAD,Study1,F,71,44,Test,User,-,,Recall,Recall2,1683,,0,-1,-1,0,0,,1
M20289928_HAW,zkl3rxubcc,Nick_Dissertation_EX2_EP_MSU_TEXAS,1,166,2022-11-23T21:56:52+00:00,1.7407331466675,4,Pure_Forward.csv,READVersionB.csv,"Read Pure F B","Read Pure F B",ROOT,PLANT,Study1,F,13,35,Test,User,-,,Recall,Recall2,1246,,0,-1,-1,0,0,,1
M20289928_HAW,zkl3rxubcc,Nick_Dissertation_EX2_EP_MSU_TEXAS,1,167,2022-11-23T21:57:00+00:00,8.4639239311218,4,Pure_Forward.csv,READVersionB.csv,"Read Pure F B","Read Pure F B",EDITOR,NEWS,Study1,F,10,13,Test,User,-,,Recall,Recall2,7958,Editor,20,6910,7665,0,0,,1
M20289928_HAW,zkl3rxubcc,Nick_Dissertation_EX2_EP_MSU_TEXAS,1,168,2022-11-23T21:57:03+00:00,2.469279050827,4,Pure_Forward.csv,READVersionB.csv,"Read Pure F B","Read Pure F B",CREDIT,CARD,Study1,F,23,38,Test,User,-,,Recall,Recall2,1985,Card,100,1239,1838,1,1,,1
M20289928_HAW,zkl3rxubcc,Nick_Dissertation_EX2_EP_MSU_TEXAS,1,169,2022-11-23T21:57:04+00:00,1.6072919368744,4,Pure_Forward.csv,READVersionB.csv,"Read Pure F B","Read Pure F B",PENGUIN,BIRD,Study1,F,69,9,Test,User,-,,Recall,Recall2,1151,,0,-1,-1,0,0,,1
M20289928_HAW,zkl3rxubcc,Nick_Dissertation_EX2_EP_MSU_TEXAS,1,170,2022-11-23T21:57:07+00:00,2.9436399936676,4,Pure_Forward.csv,READVersionB.csv,"Read Pure F B","Read Pure F B",WAGE,MONEY,Study1,F,8,33,Test,User,-,,Recall,Recall2,2448,Money,100,1547,2153,1,1,,1
M20289928_HAW,zkl3rxubcc,Nick_Dissertation_EX2_EP_MSU_TEXAS,1,171,2022-11-23T21:57:12+00:00,4.5978190898895,4,Pure_Forward.csv,READVersionB.csv,"Read Pure F B","Read Pure F B",GEOLOGY,ROCK,Study1,F,19,18,Test,User,-,,Recall,Recall2,4152,Rocks,88.888888888889,2488,3994,0,1,,1
M20289928_HAW,zkl3rxubcc,Nick_Dissertation_EX2_EP_MSU_TEXAS,1,172,2022-11-23T21:57:13+00:00,1.3158149719238,4,Pure_Forward.csv,READVersionB.csv,"Read Pure F B","Read Pure F B",WAY,OUT,Study1,F,16,15,Test,User,-,,Recall,Recall2,899,,0,-1,-1,0,0,,1
M20289928_HAW,zkl3rxubcc,Nick_Dissertation_EX2_EP_MSU_TEXAS,1,173,2022-11-23T21:57:15+00:00,1.6079609394073,4,Pure_Forward.csv,READVersionB.csv,"Read Pure F B","Read Pure F B",BREAKABLE,GLASS,Study1,F,77,42,Test,User,-,,Recall,Recall2,1116,,0,-1,-1,0,0,,1
M20289928_HAW,zkl3rxubcc,Nick_Dissertation_EX2_EP_MSU_TEXAS,1,174,2022-11-23T21:57:17+00:00,2.1909370422363,4,Pure_Forward.csv,READVersionB.csv,"Read Pure F B","Read Pure F B",BALLOON,POP,Study1,F,73,23,Test,User,-,,Recall,Recall2,1646,Pop,100,1019,1434,1,1,,1
M20289928_HAW,zkl3rxubcc,Nick_Dissertation_EX2_EP_MSU_TEXAS,1,175,2022-11-23T21:57:19+00:00,1.8484690189362,4,Pure_Forward.csv,READVersionB.csv,"Read Pure F B","Read Pure F B",FLIP,TURN,Study1,F,66,17,Test,User,-,,Recall,Recall2,1328,,0,-1,-1,0,0,,1
M20289928_HAW,zkl3rxubcc,Nick_Dissertation_EX2_EP_MSU_TEXAS,1,176,2022-11-23T21:57:23+00:00,4.6855330467224,4,Pure_Forward.csv,READVersionB.csv,"Read Pure F B","Read Pure F B",SARDINE,FISH,Study1,F,80,12,Test,User,-,,Recall,Recall2,4142,Fish,100,2288,3779,1,1,,1
M20289928_HAW,zkl3rxubcc,Nick_Dissertation_EX2_EP_MSU_TEXAS,1,177,2022-11-23T21:57:25+00:00,1.5277328491211,4,Pure_Forward.csv,READVersionB.csv,"Read Pure F B","Read Pure F B",REVENGE,EVEN,Study1,F,72,39,Test,User,-,,Recall,Recall2,1061,,0,-1,-1,0,0,,1
M20289928_HAW,zkl3rxubcc,Nick_Dissertation_EX2_EP_MSU_TEXAS,1,178,2022-11-23T21:57:28+00:00,3.2520279884338,4,Pure_Forward.csv,READVersionB.csv,"Read Pure F B","Read Pure F B",PANTHER,CAT,Study1,F,76,20,Test,User,-,,Recall,Recall2,2860,Cat,100,2272,2685,1,1,,1
M20289928_HAW,zkl3rxubcc,Nick_Dissertation_EX2_EP_MSU_TEXAS,1,179,2022-11-23T21:57:31+00:00,2.6823060512543,4,Pure_Forward.csv,READVersionB.csv,"Read Pure F B","Read Pure F B",NAP,SLEEP,Study1,F,84,34,Test,User,-,,Recall,Recall2,2233,Sleep,100,1344,1999,1,1,,1
M20289928_HAW,zkl3rxubcc,Nick_Dissertation_EX2_EP_MSU_TEXAS,1,180,2022-11-23T21:57:34+00:00,3.608845949173,4,Pure_Forward.csv,READVersionB.csv,"Read Pure F B","Read Pure F B",TUNA,FISH,Study1,F,25,46,Test,User,-,,Recall,Recall2,3096,Fish,100,2469,2883,1,1,,1
M20289928_HAW,zkl3rxubcc,Nick_Dissertation_EX2_EP_MSU_TEXAS,1,181,2022-11-23T21:57:39+00:00,4.6637470722198,4,Pure_Forward.csv,READVersionB.csv,"Read Pure F B","Read Pure F B",AIRCRAFT,PLANE,Study1,F,79,10,Test,User,-,,Recall,Recall2,4163,Plane,100,3221,3954,1,1,,1
M20289928_HAW,zkl3rxubcc,Nick_Dissertation_EX2_EP_MSU_TEXAS,1,182,2022-11-23T21:57:41+00:00,1.6353321075439,4,Pure_Forward.csv,READVersionB.csv,"Read Pure F B","Read Pure F B",HORNET,STING,Study1,F,11,22,Test,User,-,,Recall,Recall2,1037,,0,-1,-1,0,0,,1
M20289928_HAW,zkl3rxubcc,Nick_Dissertation_EX2_EP_MSU_TEXAS,1,183,2022-11-23T21:57:42+00:00,1.5296709537506,4,Pure_Forward.csv,READVersionB.csv,"Read Pure F B","Read Pure F B",DISCUSSION,TALK,Study1,F,21,16,Test,User,-,,Recall,Recall2,887,,0,-1,-1,0,0,,1
M20289928_HAW,zkl3rxubcc,Nick_Dissertation_EX2_EP_MSU_TEXAS,1,184,2022-11-23T21:57:43+00:00,1.1371369361877,4,Pure_Forward.csv,READVersionB.csv,"Read Pure F B","Read Pure F B",PAW,DOG,Study1,F,15,40,Test,User,-,,Recall,Recall2,711,,0,-1,-1,0,0,,1
M20289928_HAW,zkl3rxubcc,Nick_Dissertation_EX2_EP_MSU_TEXAS,1,185,2022-11-23T21:57:46+00:00,2.4131209850311,4,Pure_Forward.csv,READVersionB.csv,"Read Pure F B","Read Pure F B",HYGIENE,CLEAN,Study1,F,17,37,Test,User,-,,Recall,Recall2,1926,Clean,100,1252,1708,1,1,,1
M20289928_HAW,zkl3rxubcc,Nick_Dissertation_EX2_EP_MSU_TEXAS,1,186,2022-11-23T21:57:47+00:00,1.439973115921,4,Pure_Forward.csv,READVersionB.csv,"Read Pure F B","Read Pure F B",VILLAIN,BAD,Study1,F,68,8,Test,User,-,,Recall,Recall2,935,,0,-1,-1,0,0,,1
M20289928_HAW,zkl3rxubcc,Nick_Dissertation_EX2_EP_MSU_TEXAS,1,187,2022-11-23T21:57:50+00:00,3.0946090221405,4,Pure_Forward.csv,READVersionB.csv,"Read Pure F B","Read Pure F B",LEAGUE,BASEBALL,Study1,F,81,32,Test,User,-,,Recall,Recall2,2592,Baseball,100,1229,2398,1,1,,1
M20289928_HAW,zkl3rxubcc,Nick_Dissertation_EX2_EP_MSU_TEXAS,1,188,2022-11-23T21:57:53+00:00,2.2156438827515,4,Pure_Forward.csv,READVersionB.csv,"Read Pure F B","Read Pure F B",COFFIN,DEAD,Study1,F,78,31,Test,User,-,,Recall,Recall2,1735,Dead,100,1075,1592,1,1,,1
M20289928_HAW,zkl3rxubcc,Nick_Dissertation_EX2_EP_MSU_TEXAS,1,189,2022-11-23T21:57:55+00:00,2.5644130706787,4,Pure_Forward.csv,READVersionB.csv,"Read Pure F B","Read Pure F B",,,,,,0,Instruct,User,-,"You have completed this section. Please press Enter.",,Instruct7,2093,,,-1,-1,,,,1
M20289928_HAW,zkl3rxubcc,Nick_Dissertation_EX2_EP_MSU_TEXAS,1,190,2022-11-23T21:57:58+00:00,2.4366338253021,4,Pure_Forward.csv,READVersionB.csv,"Read Pure F B","Read Pure F B",,,,,,0,Instruct,User,-,"The following screen will ask you a few questions abour your experience today. You must complete these questions to receive credit.",,Instruct8,1885,,,-1,-1,,,,1
