Username,ID,ExperimentName,Session,Trial,Date,TimeDif,"Condition Number","Stimuli File","Order File","Condition Description","Condition Notes",Stimuli*Cue,Stimuli*Answer,Stimuli*Shuffle,"Stimuli*Stimuli Notes",Stimuli*Value,Procedure*Item,"Procedure*Trial Type","Procedure*Max Time","Procedure*Min Time",Procedure*Text,"Procedure*Procedure Notes",Procedure*Shuffle,Response*RT,Response*Response,Response*Accuracy,Response*RTfirst,Response*RTlast,Response*strictAcc,Response*lenientAcc,Response*focus,Response*Focus
M20304804_BNR,i0yyei9ldo,Nick_Dissertation_EX2_EP_MSU_TEXAS,1,1,2022-11-16T02:51:34+00:00,12.444958925247,3,Pure_Forward.csv,READVersionA.csv,"Read Pure F A","Read Pure F A",,,,,,0,Instruct,-,10,"Please study each of the following word pairs. Remember that your memory will be tested! Each pair will be displayed on the computer screen and will automatically advance to the next pair. Press ENTER when you are ready to begin.",Initial_Instruct,Instruct1,12347,,,-1,-1,,,,1
M20304804_BNR,i0yyei9ldo,Nick_Dissertation_EX2_EP_MSU_TEXAS,1,2,2022-11-16T02:51:42+00:00,8.1890120506287,3,Pure_Forward.csv,READVersionA.csv,"Read Pure F A","Read Pure F A",TREES,GREEN,BUFFER1,Buffer,1,4,STUDY,8,8,,Study/JOL,BUFFER,8003,,,-1,-1,,,,1
M20304804_BNR,i0yyei9ldo,Nick_Dissertation_EX2_EP_MSU_TEXAS,1,3,2022-11-16T02:51:50+00:00,8.1601419448853,3,Pure_Forward.csv,READVersionA.csv,"Read Pure F A","Read Pure F A",SPACE,JAM,BUFFER1,Buffer,5,6,STUDY,8,8,,Study/JOL,BUFFER,8002,,,-1,-1,,,,1
M20304804_BNR,i0yyei9ldo,Nick_Dissertation_EX2_EP_MSU_TEXAS,1,4,2022-11-16T02:51:58+00:00,8.2121410369873,3,Pure_Forward.csv,READVersionA.csv,"Read Pure F A","Read Pure F A",BASEBALL,CATCHER,BUFFER1,Buffer,2,5,STUDY,8,8,,Study/JOL,BUFFER,8002,,,-1,-1,,,,1
M20304804_BNR,i0yyei9ldo,Nick_Dissertation_EX2_EP_MSU_TEXAS,1,5,2022-11-16T02:52:07+00:00,8.2080399990082,3,Pure_Forward.csv,READVersionA.csv,"Read Pure F A","Read Pure F A",PEANUT,BUTTER,BUFFER1,Buffer,3,3,STUDY,8,8,,Study/JOL,BUFFER,8001,,,-1,-1,,,,1
M20304804_BNR,i0yyei9ldo,Nick_Dissertation_EX2_EP_MSU_TEXAS,1,6,2022-11-16T02:52:15+00:00,8.2792768478394,3,Pure_Forward.csv,READVersionA.csv,"Read Pure F A","Read Pure F A",SCARE,HIDE,BUFFER1,Buffer,4,2,STUDY,8,8,,Study/JOL,BUFFER,8000,,,-1,-1,,,,1
M20304804_BNR,i0yyei9ldo,Nick_Dissertation_EX2_EP_MSU_TEXAS,1,7,2022-11-16T02:52:23+00:00,8.1943511962891,3,Pure_Forward.csv,READVersionA.csv,"Read Pure F A","Read Pure F A",GEOLOGY,ROCK,Study1,F,19,20,STUDY,8,8,,Study/JOL,"Study Phase",8002,,,-1,-1,,,,1
M20304804_BNR,i0yyei9ldo,Nick_Dissertation_EX2_EP_MSU_TEXAS,1,8,2022-11-16T02:52:31+00:00,8.1587209701538,3,Pure_Forward.csv,READVersionA.csv,"Read Pure F A","Read Pure F A",TRUTHFUL,HONEST,Study1,F,83,18,STUDY,8,8,,Study/JOL,"Study Phase",8001,,,-1,-1,,,,1
M20304804_BNR,i0yyei9ldo,Nick_Dissertation_EX2_EP_MSU_TEXAS,1,9,2022-11-16T02:52:39+00:00,8.2870399951935,3,Pure_Forward.csv,READVersionA.csv,"Read Pure F A","Read Pure F A",CHISEL,HAMMER,Study1,F,9,33,STUDY,8,8,,Study/JOL,"Study Phase",8002,,,-1,-1,,,,1
M20304804_BNR,i0yyei9ldo,Nick_Dissertation_EX2_EP_MSU_TEXAS,1,10,2022-11-16T02:52:48+00:00,8.1930298805237,3,Pure_Forward.csv,READVersionA.csv,"Read Pure F A","Read Pure F A",BITTER,COLD,Study1,F,12,42,STUDY,8,8,,Study/JOL,"Study Phase",8004,,,-1,-1,,,,1
M20304804_BNR,i0yyei9ldo,Nick_Dissertation_EX2_EP_MSU_TEXAS,1,11,2022-11-16T02:52:56+00:00,8.1566491127014,3,Pure_Forward.csv,READVersionA.csv,"Read Pure F A","Read Pure F A",ORCHID,FLOWER,Study1,F,24,32,STUDY,8,8,,Study/JOL,"Study Phase",8003,,,-1,-1,,,,1
M20304804_BNR,i0yyei9ldo,Nick_Dissertation_EX2_EP_MSU_TEXAS,1,12,2022-11-16T02:53:04+00:00,8.2041058540344,3,Pure_Forward.csv,READVersionA.csv,"Read Pure F A","Read Pure F A",LEAGUE,BASEBALL,Study1,F,81,40,STUDY,8,8,,Study/JOL,"Study Phase",8001,,,-1,-1,,,,1
M20304804_BNR,i0yyei9ldo,Nick_Dissertation_EX2_EP_MSU_TEXAS,1,13,2022-11-16T02:53:12+00:00,8.285313129425,3,Pure_Forward.csv,READVersionA.csv,"Read Pure F A","Read Pure F A",PENGUIN,BIRD,Study1,F,69,39,STUDY,8,8,,Study/JOL,"Study Phase",8001,,,-1,-1,,,,1
M20304804_BNR,i0yyei9ldo,Nick_Dissertation_EX2_EP_MSU_TEXAS,1,14,2022-11-16T02:53:20+00:00,8.1752300262451,3,Pure_Forward.csv,READVersionA.csv,"Read Pure F A","Read Pure F A",NAP,SLEEP,Study1,F,84,30,STUDY,8,8,,Study/JOL,"Study Phase",8001,,,-1,-1,,,,1
M20304804_BNR,i0yyei9ldo,Nick_Dissertation_EX2_EP_MSU_TEXAS,1,15,2022-11-16T02:53:29+00:00,8.3436589241028,3,Pure_Forward.csv,READVersionA.csv,"Read Pure F A","Read Pure F A",FLIP,TURN,Study1,F,66,13,STUDY,8,8,,Study/JOL,"Study Phase",8004,,,-1,-1,,,,1
M20304804_BNR,i0yyei9ldo,Nick_Dissertation_EX2_EP_MSU_TEXAS,1,16,2022-11-16T02:53:37+00:00,8.3033211231232,3,Pure_Forward.csv,READVersionA.csv,"Read Pure F A","Read Pure F A",STRAWBERRY,FRUIT,Study1,F,74,43,STUDY,8,8,,Study/JOL,"Study Phase",8004,,,-1,-1,,,,1
M20304804_BNR,i0yyei9ldo,Nick_Dissertation_EX2_EP_MSU_TEXAS,1,17,2022-11-16T02:53:45+00:00,8.1752328872681,3,Pure_Forward.csv,READVersionA.csv,"Read Pure F A","Read Pure F A",BANKER,MONEY,Study1,F,82,46,STUDY,8,8,,Study/JOL,"Study Phase",8002,,,-1,-1,,,,1
M20304804_BNR,i0yyei9ldo,Nick_Dissertation_EX2_EP_MSU_TEXAS,1,18,2022-11-16T02:53:53+00:00,8.1588540077209,3,Pure_Forward.csv,READVersionA.csv,"Read Pure F A","Read Pure F A",TUNA,FISH,Study1,F,25,7,STUDY,8,8,,Study/JOL,"Study Phase",8003,,,-1,-1,,,,1
M20304804_BNR,i0yyei9ldo,Nick_Dissertation_EX2_EP_MSU_TEXAS,1,19,2022-11-16T02:54:02+00:00,8.2509729862213,3,Pure_Forward.csv,READVersionA.csv,"Read Pure F A","Read Pure F A",PAW,DOG,Study1,F,15,23,STUDY,8,8,,Study/JOL,"Study Phase",8000,,,-1,-1,,,,0.778
M20304804_BNR,i0yyei9ldo,Nick_Dissertation_EX2_EP_MSU_TEXAS,1,20,2022-11-16T02:54:10+00:00,8.3388249874115,3,Pure_Forward.csv,READVersionA.csv,"Read Pure F A","Read Pure F A",COFFIN,DEAD,Study1,F,78,24,STUDY,8,8,,Study/JOL,"Study Phase",8002,,,-1,-1,,,,1
M20304804_BNR,i0yyei9ldo,Nick_Dissertation_EX2_EP_MSU_TEXAS,1,21,2022-11-16T02:54:18+00:00,8.3127291202545,3,Pure_Forward.csv,READVersionA.csv,"Read Pure F A","Read Pure F A",ACTRESS,STAR,Study1,F,70,12,STUDY,8,8,,Study/JOL,"Study Phase",8005,,,-1,-1,,,,1
M20304804_BNR,i0yyei9ldo,Nick_Dissertation_EX2_EP_MSU_TEXAS,1,22,2022-11-16T02:54:26+00:00,8.1638779640198,3,Pure_Forward.csv,READVersionA.csv,"Read Pure F A","Read Pure F A",DELINQUENT,BAD,Study1,F,6,28,STUDY,8,8,,Study/JOL,"Study Phase",8001,,,-1,-1,,,,1
M20304804_BNR,i0yyei9ldo,Nick_Dissertation_EX2_EP_MSU_TEXAS,1,23,2022-11-16T02:54:35+00:00,8.3491818904877,3,Pure_Forward.csv,READVersionA.csv,"Read Pure F A","Read Pure F A",DIGESTION,STOMACH,Study1,F,7,16,STUDY,8,8,,Study/JOL,"Study Phase",8002,,,-1,-1,,,,1
M20304804_BNR,i0yyei9ldo,Nick_Dissertation_EX2_EP_MSU_TEXAS,1,24,2022-11-16T02:54:43+00:00,8.300537109375,3,Pure_Forward.csv,READVersionA.csv,"Read Pure F A","Read Pure F A",PANTHER,CAT,Study1,F,76,26,STUDY,8,8,,Study/JOL,"Study Phase",8000,,,-1,-1,,,,1
M20304804_BNR,i0yyei9ldo,Nick_Dissertation_EX2_EP_MSU_TEXAS,1,25,2022-11-16T02:54:51+00:00,8.1570808887482,3,Pure_Forward.csv,READVersionA.csv,"Read Pure F A","Read Pure F A",FAVORITE,BEST,Study1,F,75,9,STUDY,8,8,,Study/JOL,"Study Phase",8004,,,-1,-1,,,,1
M20304804_BNR,i0yyei9ldo,Nick_Dissertation_EX2_EP_MSU_TEXAS,1,26,2022-11-16T02:54:59+00:00,8.1676330566406,3,Pure_Forward.csv,READVersionA.csv,"Read Pure F A","Read Pure F A",WAGE,MONEY,Study1,F,8,36,STUDY,8,8,,Study/JOL,"Study Phase",8005,,,-1,-1,,,,1
M20304804_BNR,i0yyei9ldo,Nick_Dissertation_EX2_EP_MSU_TEXAS,1,27,2022-11-16T02:55:08+00:00,8.2583930492401,3,Pure_Forward.csv,READVersionA.csv,"Read Pure F A","Read Pure F A",BRAWL,FIGHT,Study1,F,85,22,STUDY,8,8,,Study/JOL,"Study Phase",8001,,,-1,-1,,,,1
M20304804_BNR,i0yyei9ldo,Nick_Dissertation_EX2_EP_MSU_TEXAS,1,28,2022-11-16T02:55:16+00:00,8.2736389636993,3,Pure_Forward.csv,READVersionA.csv,"Read Pure F A","Read Pure F A",HERD,COW,Study1,F,22,31,STUDY,8,8,,Study/JOL,"Study Phase",8003,,,-1,-1,,,,1
M20304804_BNR,i0yyei9ldo,Nick_Dissertation_EX2_EP_MSU_TEXAS,1,29,2022-11-16T02:55:24+00:00,8.1646780967712,3,Pure_Forward.csv,READVersionA.csv,"Read Pure F A","Read Pure F A",REVENGE,EVEN,Study1,F,72,34,STUDY,8,8,,Study/JOL,"Study Phase",8001,,,-1,-1,,,,1
M20304804_BNR,i0yyei9ldo,Nick_Dissertation_EX2_EP_MSU_TEXAS,1,30,2022-11-16T02:55:32+00:00,8.267698764801,3,Pure_Forward.csv,READVersionA.csv,"Read Pure F A","Read Pure F A",HORNET,STING,Study1,F,11,29,STUDY,8,8,,Study/JOL,"Study Phase",8002,,,-1,-1,,,,1
M20304804_BNR,i0yyei9ldo,Nick_Dissertation_EX2_EP_MSU_TEXAS,1,31,2022-11-16T02:55:41+00:00,8.1586511135101,3,Pure_Forward.csv,READVersionA.csv,"Read Pure F A","Read Pure F A",EDITOR,NEWS,Study1,F,10,27,STUDY,8,8,,Study/JOL,"Study Phase",8004,,,-1,-1,,,,1
M20304804_BNR,i0yyei9ldo,Nick_Dissertation_EX2_EP_MSU_TEXAS,1,32,2022-11-16T02:55:49+00:00,8.1583321094513,3,Pure_Forward.csv,READVersionA.csv,"Read Pure F A","Read Pure F A",THIMBLE,THREAD,Study1,F,71,10,STUDY,8,8,,Study/JOL,"Study Phase",8006,,,-1,-1,,,,1
M20304804_BNR,i0yyei9ldo,Nick_Dissertation_EX2_EP_MSU_TEXAS,1,33,2022-11-16T02:55:57+00:00,8.2514379024506,3,Pure_Forward.csv,READVersionA.csv,"Read Pure F A","Read Pure F A",REVOLUTION,WAR,Study1,F,20,11,STUDY,8,8,,Study/JOL,"Study Phase",8001,,,-1,-1,,,,1
M20304804_BNR,i0yyei9ldo,Nick_Dissertation_EX2_EP_MSU_TEXAS,1,34,2022-11-16T02:56:05+00:00,8.2779400348663,3,Pure_Forward.csv,READVersionA.csv,"Read Pure F A","Read Pure F A",BALLOON,POP,Study1,F,73,8,STUDY,8,8,,Study/JOL,"Study Phase",8005,,,-1,-1,,,,0.838
M20304804_BNR,i0yyei9ldo,Nick_Dissertation_EX2_EP_MSU_TEXAS,1,35,2022-11-16T02:56:13+00:00,8.1719160079956,3,Pure_Forward.csv,READVersionA.csv,"Read Pure F A","Read Pure F A",BRIDGE,WATER,Study1,F,18,37,STUDY,8,8,,Study/JOL,"Study Phase",8001,,,-1,-1,,,,1
M20304804_BNR,i0yyei9ldo,Nick_Dissertation_EX2_EP_MSU_TEXAS,1,36,2022-11-16T02:56:22+00:00,8.3177590370178,3,Pure_Forward.csv,READVersionA.csv,"Read Pure F A","Read Pure F A",WINDSHIELD,CAR,Study1,F,67,41,STUDY,8,8,,Study/JOL,"Study Phase",8000,,,-1,-1,,,,1
M20304804_BNR,i0yyei9ldo,Nick_Dissertation_EX2_EP_MSU_TEXAS,1,37,2022-11-16T02:56:30+00:00,8.4232678413391,3,Pure_Forward.csv,READVersionA.csv,"Read Pure F A","Read Pure F A",SWAN,BIRD,Study1,F,14,17,STUDY,8,8,,Study/JOL,"Study Phase",8000,,,-1,-1,,,,1
M20304804_BNR,i0yyei9ldo,Nick_Dissertation_EX2_EP_MSU_TEXAS,1,38,2022-11-16T02:56:38+00:00,8.3001439571381,3,Pure_Forward.csv,READVersionA.csv,"Read Pure F A","Read Pure F A",AIRCRAFT,PLANE,Study1,F,79,19,STUDY,8,8,,Study/JOL,"Study Phase",8002,,,-1,-1,,,,1
M20304804_BNR,i0yyei9ldo,Nick_Dissertation_EX2_EP_MSU_TEXAS,1,39,2022-11-16T02:56:47+00:00,8.1553740501404,3,Pure_Forward.csv,READVersionA.csv,"Read Pure F A","Read Pure F A",VILLAIN,BAD,Study1,F,68,21,STUDY,8,8,,Study/JOL,"Study Phase",8001,,,-1,-1,,,,1
M20304804_BNR,i0yyei9ldo,Nick_Dissertation_EX2_EP_MSU_TEXAS,1,40,2022-11-16T02:56:55+00:00,8.1832680702209,3,Pure_Forward.csv,READVersionA.csv,"Read Pure F A","Read Pure F A",DISCUSSION,TALK,Study1,F,21,14,STUDY,8,8,,Study/JOL,"Study Phase",8004,,,-1,-1,,,,1
M20304804_BNR,i0yyei9ldo,Nick_Dissertation_EX2_EP_MSU_TEXAS,1,41,2022-11-16T02:57:03+00:00,8.2404589653015,3,Pure_Forward.csv,READVersionA.csv,"Read Pure F A","Read Pure F A",HYGIENE,CLEAN,Study1,F,17,44,STUDY,8,8,,Study/JOL,"Study Phase",8001,,,-1,-1,,,,1
M20304804_BNR,i0yyei9ldo,Nick_Dissertation_EX2_EP_MSU_TEXAS,1,42,2022-11-16T02:57:11+00:00,8.2656619548798,3,Pure_Forward.csv,READVersionA.csv,"Read Pure F A","Read Pure F A",SARDINE,FISH,Study1,F,80,25,STUDY,8,8,,Study/JOL,"Study Phase",8002,,,-1,-1,,,,1
M20304804_BNR,i0yyei9ldo,Nick_Dissertation_EX2_EP_MSU_TEXAS,1,43,2022-11-16T02:57:19+00:00,8.1680359840393,3,Pure_Forward.csv,READVersionA.csv,"Read Pure F A","Read Pure F A",BREAKABLE,GLASS,Study1,F,77,45,STUDY,8,8,,Study/JOL,"Study Phase",8003,,,-1,-1,,,,1
M20304804_BNR,i0yyei9ldo,Nick_Dissertation_EX2_EP_MSU_TEXAS,1,44,2022-11-16T02:57:28+00:00,8.4132781028748,3,Pure_Forward.csv,READVersionA.csv,"Read Pure F A","Read Pure F A",CREDIT,CARD,Study1,F,23,38,STUDY,8,8,,Study/JOL,"Study Phase",8007,,,-1,-1,,,,1
M20304804_BNR,i0yyei9ldo,Nick_Dissertation_EX2_EP_MSU_TEXAS,1,45,2022-11-16T02:57:36+00:00,8.2991590499878,3,Pure_Forward.csv,READVersionA.csv,"Read Pure F A","Read Pure F A",WAY,OUT,Study1,F,16,15,STUDY,8,8,,Study/JOL,"Study Phase",8001,,,-1,-1,,,,1
M20304804_BNR,i0yyei9ldo,Nick_Dissertation_EX2_EP_MSU_TEXAS,1,46,2022-11-16T02:57:45+00:00,8.3238339424133,3,Pure_Forward.csv,READVersionA.csv,"Read Pure F A","Read Pure F A",ROOT,PLANT,Study1,F,13,35,STUDY,8,8,,Study/JOL,"Study Phase",8001,,,-1,-1,,,,1
M20304804_BNR,i0yyei9ldo,Nick_Dissertation_EX2_EP_MSU_TEXAS,1,47,2022-11-16T02:57:53+00:00,8.1882328987122,3,Pure_Forward.csv,READVersionA.csv,"Read Pure F A","Read Pure F A",MALT,CHOCOLATE,BUFFER2,Buffer,88,47,STUDY,8,8,,Study/JOL,BUFFER2,8001,,,-1,-1,,,,1
M20304804_BNR,i0yyei9ldo,Nick_Dissertation_EX2_EP_MSU_TEXAS,1,48,2022-11-16T02:58:01+00:00,8.162670135498,3,Pure_Forward.csv,READVersionA.csv,"Read Pure F A","Read Pure F A",GEESE,GOOSE,BUFFER2,Buffer,86,51,STUDY,8,8,,Study/JOL,BUFFER2,8005,,,-1,-1,,,,1
M20304804_BNR,i0yyei9ldo,Nick_Dissertation_EX2_EP_MSU_TEXAS,1,49,2022-11-16T02:58:09+00:00,8.2342958450317,3,Pure_Forward.csv,READVersionA.csv,"Read Pure F A","Read Pure F A",MOON,SPACE,BUFFER2,Buffer,89,49,STUDY,8,8,,Study/JOL,BUFFER2,8002,,,-1,-1,,,,0.816
M20304804_BNR,i0yyei9ldo,Nick_Dissertation_EX2_EP_MSU_TEXAS,1,50,2022-11-16T02:58:17+00:00,8.2691061496735,3,Pure_Forward.csv,READVersionA.csv,"Read Pure F A","Read Pure F A",SHERRIF,POLICE,BUFFER2,Buffer,87,48,STUDY,8,8,,Study/JOL,BUFFER2,8002,,,-1,-1,,,,1
M20304804_BNR,i0yyei9ldo,Nick_Dissertation_EX2_EP_MSU_TEXAS,1,51,2022-11-16T02:58:26+00:00,8.181755065918,3,Pure_Forward.csv,READVersionA.csv,"Read Pure F A","Read Pure F A",THING,STUFF,BUFFER2,Buffer,90,50,STUDY,8,8,,Study/JOL,BUFFER2,8007,,,-1,-1,,,,1
M20304804_BNR,i0yyei9ldo,Nick_Dissertation_EX2_EP_MSU_TEXAS,1,52,2022-11-16T02:58:28+00:00,2.3024439811707,3,Pure_Forward.csv,READVersionA.csv,"Read Pure F A","Read Pure F A",,,,,,0,Instruct,User,-,"You have completed this section. Please press Enter.",Filler_Instruction,Instruct2,1994,,,-1,-1,,,,1
M20304804_BNR,i0yyei9ldo,Nick_Dissertation_EX2_EP_MSU_TEXAS,1,53,2022-11-16T03:00:28+00:00,120.30725097656,3,Pure_Forward.csv,READVersionA.csv,"Read Pure F A","Read Pure F A",,,,,,0,FreeRecall,120,120,"Please list the 50 US states in alphabetical order. The task will automatically advance to the next screen after two minutes.",,Filler1,120010,"alabama alaska arkansas california colorado delaware florida georgia hawaii",0,8774,115957,0,0,,1
M20304804_BNR,i0yyei9ldo,Nick_Dissertation_EX2_EP_MSU_TEXAS,1,54,2022-11-16T03:00:41+00:00,12.571974992752,3,Pure_Forward.csv,READVersionA.csv,"Read Pure F A","Read Pure F A",,,,,,0,Instruct,-,10,"You will now be presented with the first word from each of the previously studied item pairs. Please type the missing word. If you do not know the word, you may guess or press Enter to skip forward to the next pair.",,Instruct3,12248,,,-1,-1,,,,1
M20304804_BNR,i0yyei9ldo,Nick_Dissertation_EX2_EP_MSU_TEXAS,1,55,2022-11-16T03:00:45+00:00,3.9961278438568,3,Pure_Forward.csv,READVersionA.csv,"Read Pure F A","Read Pure F A",EDITOR,NEWS,Study1,F,10,27,Test,User,-,,Recall,Recall1,3677,writer,20,2350,2990,0,0,,1
M20304804_BNR,i0yyei9ldo,Nick_Dissertation_EX2_EP_MSU_TEXAS,1,56,2022-11-16T03:00:48+00:00,3.3517711162567,3,Pure_Forward.csv,READVersionA.csv,"Read Pure F A","Read Pure F A",DIGESTION,STOMACH,Study1,F,7,16,Test,User,-,,Recall,Recall1,3172,stomach,100,1544,2205,1,1,,1
M20304804_BNR,i0yyei9ldo,Nick_Dissertation_EX2_EP_MSU_TEXAS,1,57,2022-11-16T03:00:51+00:00,3.0021030902863,3,Pure_Forward.csv,READVersionA.csv,"Read Pure F A","Read Pure F A",ROOT,PLANT,Study1,F,13,35,Test,User,-,,Recall,Recall1,2687,plant,100,1261,1947,1,1,,1
M20304804_BNR,i0yyei9ldo,Nick_Dissertation_EX2_EP_MSU_TEXAS,1,58,2022-11-16T03:00:56+00:00,4.9171748161316,3,Pure_Forward.csv,READVersionA.csv,"Read Pure F A","Read Pure F A",HERD,COW,Study1,F,22,31,Test,User,-,,Recall,Recall1,4766,sheep,0,2302,4006,0,0,,1
M20304804_BNR,i0yyei9ldo,Nick_Dissertation_EX2_EP_MSU_TEXAS,1,59,2022-11-16T03:01:00+00:00,3.5775871276855,3,Pure_Forward.csv,READVersionA.csv,"Read Pure F A","Read Pure F A",BRAWL,FIGHT,Study1,F,85,22,Test,User,-,,Recall,Recall1,3380,fight,100,2299,2710,1,1,,1
M20304804_BNR,i0yyei9ldo,Nick_Dissertation_EX2_EP_MSU_TEXAS,1,60,2022-11-16T03:01:05+00:00,5.5589499473572,3,Pure_Forward.csv,READVersionA.csv,"Read Pure F A","Read Pure F A",BANKER,MONEY,Study1,F,82,46,Test,User,-,,Recall,Recall1,5378,wage,22.222222222222,4223,4707,0,0,,1
M20304804_BNR,i0yyei9ldo,Nick_Dissertation_EX2_EP_MSU_TEXAS,1,61,2022-11-16T03:01:09+00:00,3.3912889957428,3,Pure_Forward.csv,READVersionA.csv,"Read Pure F A","Read Pure F A",COFFIN,DEAD,Study1,F,78,24,Test,User,-,,Recall,Recall1,3231,death,66.666666666667,1265,2532,0,0,,1
M20304804_BNR,i0yyei9ldo,Nick_Dissertation_EX2_EP_MSU_TEXAS,1,62,2022-11-16T03:01:12+00:00,3.4062669277191,3,Pure_Forward.csv,READVersionA.csv,"Read Pure F A","Read Pure F A",DISCUSSION,TALK,Study1,F,21,14,Test,User,-,,Recall,Recall1,3160,talk,100,2045,2379,1,1,,1
M20304804_BNR,i0yyei9ldo,Nick_Dissertation_EX2_EP_MSU_TEXAS,1,63,2022-11-16T03:01:17+00:00,5.133061170578,3,Pure_Forward.csv,READVersionA.csv,"Read Pure F A","Read Pure F A",VILLAIN,BAD,Study1,F,68,21,Test,User,-,,Recall,Recall1,4935,delinquent,15.384615384615,2285,4075,0,0,,1
M20304804_BNR,i0yyei9ldo,Nick_Dissertation_EX2_EP_MSU_TEXAS,1,64,2022-11-16T03:01:20+00:00,3.3133828639984,3,Pure_Forward.csv,READVersionA.csv,"Read Pure F A","Read Pure F A",DELINQUENT,BAD,Study1,F,6,28,Test,User,-,,Recall,Recall1,3116,bad,100,1894,2056,1,1,,1
M20304804_BNR,i0yyei9ldo,Nick_Dissertation_EX2_EP_MSU_TEXAS,1,65,2022-11-16T03:01:24+00:00,3.3364441394806,3,Pure_Forward.csv,READVersionA.csv,"Read Pure F A","Read Pure F A",BITTER,COLD,Study1,F,12,42,Test,User,-,,Recall,Recall1,3128,cold,100,2145,2477,1,1,,1
M20304804_BNR,i0yyei9ldo,Nick_Dissertation_EX2_EP_MSU_TEXAS,1,66,2022-11-16T03:01:28+00:00,3.8922839164734,3,Pure_Forward.csv,READVersionA.csv,"Read Pure F A","Read Pure F A",WAY,OUT,Study1,F,16,15,Test,User,-,,Recall,Recall1,3463,out,100,2529,2755,1,1,,1
M20304804_BNR,i0yyei9ldo,Nick_Dissertation_EX2_EP_MSU_TEXAS,1,67,2022-11-16T03:01:30+00:00,2.5234889984131,3,Pure_Forward.csv,READVersionA.csv,"Read Pure F A","Read Pure F A",CREDIT,CARD,Study1,F,23,38,Test,User,-,,Recall,Recall1,2339,card,100,1331,1791,1,1,,1
M20304804_BNR,i0yyei9ldo,Nick_Dissertation_EX2_EP_MSU_TEXAS,1,68,2022-11-16T03:01:34+00:00,3.8598508834839,3,Pure_Forward.csv,READVersionA.csv,"Read Pure F A","Read Pure F A",PAW,DOG,Study1,F,15,23,Test,User,-,,Recall,Recall1,3595,dog,100,2592,2904,1,1,,1
M20304804_BNR,i0yyei9ldo,Nick_Dissertation_EX2_EP_MSU_TEXAS,1,69,2022-11-16T03:01:38+00:00,3.647313117981,3,Pure_Forward.csv,READVersionA.csv,"Read Pure F A","Read Pure F A",FLIP,TURN,Study1,F,66,13,Test,User,-,,Recall,Recall1,3491,flop,0,2290,2714,0,0,,1
M20304804_BNR,i0yyei9ldo,Nick_Dissertation_EX2_EP_MSU_TEXAS,1,70,2022-11-16T03:01:40+00:00,2.3451519012451,3,Pure_Forward.csv,READVersionA.csv,"Read Pure F A","Read Pure F A",FAVORITE,BEST,Study1,F,75,9,Test,User,-,,Recall,Recall1,2182,best,100,1309,1721,1,1,,1
M20304804_BNR,i0yyei9ldo,Nick_Dissertation_EX2_EP_MSU_TEXAS,1,71,2022-11-16T03:01:47+00:00,6.5979001522064,3,Pure_Forward.csv,READVersionA.csv,"Read Pure F A","Read Pure F A",BRIDGE,WATER,Study1,F,18,37,Test,User,-,,Recall,Recall1,6358,water,100,5151,5747,1,1,,1
M20304804_BNR,i0yyei9ldo,Nick_Dissertation_EX2_EP_MSU_TEXAS,1,72,2022-11-16T03:01:49+00:00,2.1606919765472,3,Pure_Forward.csv,READVersionA.csv,"Read Pure F A","Read Pure F A",TUNA,FISH,Study1,F,25,7,Test,User,-,,Recall,Recall1,2003,fish,100,874,1246,1,1,,1
M20304804_BNR,i0yyei9ldo,Nick_Dissertation_EX2_EP_MSU_TEXAS,1,73,2022-11-16T03:01:51+00:00,2.5258438587189,3,Pure_Forward.csv,READVersionA.csv,"Read Pure F A","Read Pure F A",BALLOON,POP,Study1,F,73,8,Test,User,-,,Recall,Recall1,2219,air,0,1261,1491,0,0,,1
M20304804_BNR,i0yyei9ldo,Nick_Dissertation_EX2_EP_MSU_TEXAS,1,74,2022-11-16T03:01:54+00:00,2.7477672100067,3,Pure_Forward.csv,READVersionA.csv,"Read Pure F A","Read Pure F A",SWAN,BIRD,Study1,F,14,17,Test,User,-,,Recall,Recall1,2556,bird,100,1537,1903,1,1,,1
M20304804_BNR,i0yyei9ldo,Nick_Dissertation_EX2_EP_MSU_TEXAS,1,75,2022-11-16T03:01:58+00:00,4.1156158447266,3,Pure_Forward.csv,READVersionA.csv,"Read Pure F A","Read Pure F A",WINDSHIELD,CAR,Study1,F,67,41,Test,User,-,,Recall,Recall1,3952,car,100,1800,2104,1,1,,1
M20304804_BNR,i0yyei9ldo,Nick_Dissertation_EX2_EP_MSU_TEXAS,1,76,2022-11-16T03:02:02+00:00,3.621749162674,3,Pure_Forward.csv,READVersionA.csv,"Read Pure F A","Read Pure F A",NAP,SLEEP,Study1,F,84,30,Test,User,-,,Recall,Recall1,3395,sleep,100,1480,1931,1,1,,1
M20304804_BNR,i0yyei9ldo,Nick_Dissertation_EX2_EP_MSU_TEXAS,1,77,2022-11-16T03:02:07+00:00,5.2935688495636,3,Pure_Forward.csv,READVersionA.csv,"Read Pure F A","Read Pure F A",BREAKABLE,GLASS,Study1,F,77,45,Test,User,-,,Recall,Recall1,5115,fragile,16.666666666667,3448,4340,0,0,,1
M20304804_BNR,i0yyei9ldo,Nick_Dissertation_EX2_EP_MSU_TEXAS,1,78,2022-11-16T03:02:10+00:00,3.3464920520782,3,Pure_Forward.csv,READVersionA.csv,"Read Pure F A","Read Pure F A",HYGIENE,CLEAN,Study1,F,17,44,Test,User,-,,Recall,Recall1,3174,clean,100,1798,2245,1,1,,1
M20304804_BNR,i0yyei9ldo,Nick_Dissertation_EX2_EP_MSU_TEXAS,1,79,2022-11-16T03:02:15+00:00,4.6550419330597,3,Pure_Forward.csv,READVersionA.csv,"Read Pure F A","Read Pure F A",THIMBLE,THREAD,Study1,F,71,10,Test,User,-,,Recall,Recall1,4416,thread,100,2600,3754,1,1,,1
M20304804_BNR,i0yyei9ldo,Nick_Dissertation_EX2_EP_MSU_TEXAS,1,80,2022-11-16T03:02:18+00:00,3.0381419658661,3,Pure_Forward.csv,READVersionA.csv,"Read Pure F A","Read Pure F A",REVOLUTION,WAR,Study1,F,20,11,Test,User,-,,Recall,Recall1,2886,war,100,1433,1680,1,1,,1
M20304804_BNR,i0yyei9ldo,Nick_Dissertation_EX2_EP_MSU_TEXAS,1,81,2022-11-16T03:02:22+00:00,4.1860101222992,3,Pure_Forward.csv,READVersionA.csv,"Read Pure F A","Read Pure F A",WAGE,MONEY,Study1,F,8,36,Test,User,-,,Recall,Recall1,3988,money,100,2701,3130,1,1,,1
M20304804_BNR,i0yyei9ldo,Nick_Dissertation_EX2_EP_MSU_TEXAS,1,82,2022-11-16T03:02:28+00:00,5.695827960968,3,Pure_Forward.csv,READVersionA.csv,"Read Pure F A","Read Pure F A",ACTRESS,STAR,Study1,F,70,12,Test,User,-,,Recall,Recall1,5445,woman,22.222222222222,4169,4769,0,0,,1
M20304804_BNR,i0yyei9ldo,Nick_Dissertation_EX2_EP_MSU_TEXAS,1,83,2022-11-16T03:02:42+00:00,13.638824939728,3,Pure_Forward.csv,READVersionA.csv,"Read Pure F A","Read Pure F A",REVENGE,EVEN,Study1,F,72,34,Test,User,-,,Recall,Recall1,13329,even,100,11594,12558,1,1,,1
M20304804_BNR,i0yyei9ldo,Nick_Dissertation_EX2_EP_MSU_TEXAS,1,84,2022-11-16T03:02:44+00:00,2.8229801654816,3,Pure_Forward.csv,READVersionA.csv,"Read Pure F A","Read Pure F A",PANTHER,CAT,Study1,F,76,26,Test,User,-,,Recall,Recall1,2674,cat,100,1736,2041,1,1,,1
M20304804_BNR,i0yyei9ldo,Nick_Dissertation_EX2_EP_MSU_TEXAS,1,85,2022-11-16T03:02:48+00:00,3.1344149112701,3,Pure_Forward.csv,READVersionA.csv,"Read Pure F A","Read Pure F A",TRUTHFUL,HONEST,Study1,F,83,18,Test,User,-,,Recall,Recall1,2968,honest,100,1351,2362,1,1,,1
M20304804_BNR,i0yyei9ldo,Nick_Dissertation_EX2_EP_MSU_TEXAS,1,86,2022-11-16T03:02:50+00:00,2.1504530906677,3,Pure_Forward.csv,READVersionA.csv,"Read Pure F A","Read Pure F A",GEOLOGY,ROCK,Study1,F,19,20,Test,User,-,,Recall,Recall1,1987,rock,100,959,1237,1,1,,1
M20304804_BNR,i0yyei9ldo,Nick_Dissertation_EX2_EP_MSU_TEXAS,1,87,2022-11-16T03:02:52+00:00,2.5658469200134,3,Pure_Forward.csv,READVersionA.csv,"Read Pure F A","Read Pure F A",HORNET,STING,Study1,F,11,29,Test,User,-,,Recall,Recall1,2246,sting,100,1103,1575,1,1,,1
M20304804_BNR,i0yyei9ldo,Nick_Dissertation_EX2_EP_MSU_TEXAS,1,88,2022-11-16T03:02:55+00:00,2.5157508850098,3,Pure_Forward.csv,READVersionA.csv,"Read Pure F A","Read Pure F A",ORCHID,FLOWER,Study1,F,24,32,Test,User,-,,Recall,Recall1,2282,flower,100,1058,1639,1,1,,1
M20304804_BNR,i0yyei9ldo,Nick_Dissertation_EX2_EP_MSU_TEXAS,1,89,2022-11-16T03:02:59+00:00,4.6722211837769,3,Pure_Forward.csv,READVersionA.csv,"Read Pure F A","Read Pure F A",AIRCRAFT,PLANE,Study1,F,79,19,Test,User,-,,Recall,Recall1,4504,plane,100,2533,3422,1,1,,1
M20304804_BNR,i0yyei9ldo,Nick_Dissertation_EX2_EP_MSU_TEXAS,1,90,2022-11-16T03:03:04+00:00,4.6306688785553,3,Pure_Forward.csv,READVersionA.csv,"Read Pure F A","Read Pure F A",SARDINE,FISH,Study1,F,80,25,Test,User,-,,Recall,Recall1,4462,fish,100,1326,3709,1,1,,1
M20304804_BNR,i0yyei9ldo,Nick_Dissertation_EX2_EP_MSU_TEXAS,1,91,2022-11-16T03:03:08+00:00,4.3620629310608,3,Pure_Forward.csv,READVersionA.csv,"Read Pure F A","Read Pure F A",PENGUIN,BIRD,Study1,F,69,39,Test,User,-,,Recall,Recall1,4208,bird,100,3227,3687,1,1,,1
M20304804_BNR,i0yyei9ldo,Nick_Dissertation_EX2_EP_MSU_TEXAS,1,92,2022-11-16T03:03:13+00:00,4.6745071411133,3,Pure_Forward.csv,READVersionA.csv,"Read Pure F A","Read Pure F A",CHISEL,HAMMER,Study1,F,9,33,Test,User,-,,Recall,Recall1,4524,sculptor,14.285714285714,1853,3874,0,0,,1
M20304804_BNR,i0yyei9ldo,Nick_Dissertation_EX2_EP_MSU_TEXAS,1,93,2022-11-16T03:03:16+00:00,3.0624730587006,3,Pure_Forward.csv,READVersionA.csv,"Read Pure F A","Read Pure F A",STRAWBERRY,FRUIT,Study1,F,74,43,Test,User,-,,Recall,Recall1,2779,fruit,100,1491,2154,1,1,,1
M20304804_BNR,i0yyei9ldo,Nick_Dissertation_EX2_EP_MSU_TEXAS,1,94,2022-11-16T03:03:20+00:00,3.3464438915253,3,Pure_Forward.csv,READVersionA.csv,"Read Pure F A","Read Pure F A",LEAGUE,BASEBALL,Study1,F,81,40,Test,User,-,,Recall,Recall1,3170,baseball,100,1539,2517,1,1,,1
M20304804_BNR,i0yyei9ldo,Nick_Dissertation_EX2_EP_MSU_TEXAS,1,95,2022-11-16T03:05:11+00:00,111.08914804459,3,Pure_Forward.csv,READVersionA.csv,"Read Pure F A","Read Pure F A",,,,,,0,Instruct,-,10,"You will now be presented with a new set of word pairs. Please study each pair. Remember that your memory will be tested! Each pair will be displayed on the computer screen and will automatically advance to the next pair. Press ENTER when you are ready to begin.",Initial_Instruct,Instruct4,110523,,,-1,-1,,,,0.692
M20304804_BNR,i0yyei9ldo,Nick_Dissertation_EX2_EP_MSU_TEXAS,1,96,2022-11-16T03:05:19+00:00,8.2488658428192,3,Pure_Forward.csv,READVersionA.csv,"Read Pure F A","Read Pure F A",NOODLE,STRING,BUFFER3,Buffer,92,53,STUDY,8,8,,Study/JOL,BUFFER3,8002,,,-1,-1,,,,1
M20304804_BNR,i0yyei9ldo,Nick_Dissertation_EX2_EP_MSU_TEXAS,1,97,2022-11-16T03:05:27+00:00,8.185889005661,3,Pure_Forward.csv,READVersionA.csv,"Read Pure F A","Read Pure F A",SHRIMP,FISH,BUFFER3,Buffer,93,54,STUDY,8,8,,Study/JOL,BUFFER3,8007,,,-1,-1,,,,1
M20304804_BNR,i0yyei9ldo,Nick_Dissertation_EX2_EP_MSU_TEXAS,1,98,2022-11-16T03:05:35+00:00,8.306529045105,3,Pure_Forward.csv,READVersionA.csv,"Read Pure F A","Read Pure F A",CARROT,POTATO,BUFFER3,Buffer,91,56,STUDY,8,8,,Study/JOL,BUFFER3,8002,,,-1,-1,,,,1
M20304804_BNR,i0yyei9ldo,Nick_Dissertation_EX2_EP_MSU_TEXAS,1,99,2022-11-16T03:05:44+00:00,8.3222050666809,3,Pure_Forward.csv,READVersionA.csv,"Read Pure F A","Read Pure F A",CAMP,ADVENTURE,BUFFER3,Buffer,95,55,STUDY,8,8,,Study/JOL,BUFFER3,8002,,,-1,-1,,,,1
M20304804_BNR,i0yyei9ldo,Nick_Dissertation_EX2_EP_MSU_TEXAS,1,100,2022-11-16T03:05:52+00:00,8.1588299274445,3,Pure_Forward.csv,READVersionA.csv,"Read Pure F A","Read Pure F A",ICE,FROZEN,BUFFER3,Buffer,94,52,STUDY,8,8,,Study/JOL,BUFFER3,8003,,,-1,-1,,,,1
M20304804_BNR,i0yyei9ldo,Nick_Dissertation_EX2_EP_MSU_TEXAS,1,101,2022-11-16T03:06:00+00:00,8.172238111496,3,Pure_Forward.csv,READVersionA.csv,"Read Pure F A","Read Pure F A",GROWTH,HEIGHT,Study2,F,100,87,STUDY,8,8,,Study/JOL,"Study Phase2",8002,,,-1,-1,,,,1
M20304804_BNR,i0yyei9ldo,Nick_Dissertation_EX2_EP_MSU_TEXAS,1,102,2022-11-16T03:06:08+00:00,8.2418508529663,3,Pure_Forward.csv,READVersionA.csv,"Read Pure F A","Read Pure F A",CHORE,WORK,Study2,F,109,81,STUDY,8,8,,Study/JOL,"Study Phase2",8001,,,-1,-1,,,,1
M20304804_BNR,i0yyei9ldo,Nick_Dissertation_EX2_EP_MSU_TEXAS,1,103,2022-11-16T03:06:17+00:00,8.2850580215454,3,Pure_Forward.csv,READVersionA.csv,"Read Pure F A","Read Pure F A",SEIZE,TAKE,Study2,F,99,72,STUDY,8,8,,Study/JOL,"Study Phase2",8007,,,-1,-1,,,,1
M20304804_BNR,i0yyei9ldo,Nick_Dissertation_EX2_EP_MSU_TEXAS,1,104,2022-11-16T03:06:25+00:00,8.1758279800415,3,Pure_Forward.csv,READVersionA.csv,"Read Pure F A","Read Pure F A",DRIVER,CAR,Study2,F,166,60,STUDY,8,8,,Study/JOL,"Study Phase2",8004,,,-1,-1,,,,1
M20304804_BNR,i0yyei9ldo,Nick_Dissertation_EX2_EP_MSU_TEXAS,1,105,2022-11-16T03:06:33+00:00,8.5955431461334,3,Pure_Forward.csv,READVersionA.csv,"Read Pure F A","Read Pure F A",ENOUGH,FULL,Study2,F,96,88,STUDY,8,8,,Study/JOL,"Study Phase2",8004,,,-1,-1,,,,1
M20304804_BNR,i0yyei9ldo,Nick_Dissertation_EX2_EP_MSU_TEXAS,1,106,2022-11-16T03:06:42+00:00,8.1803748607635,3,Pure_Forward.csv,READVersionA.csv,"Read Pure F A","Read Pure F A",WASP,BUG,Study2,F,102,73,STUDY,8,8,,Study/JOL,"Study Phase2",8001,,,-1,-1,,,,1
M20304804_BNR,i0yyei9ldo,Nick_Dissertation_EX2_EP_MSU_TEXAS,1,107,2022-11-16T03:06:50+00:00,8.3422741889954,3,Pure_Forward.csv,READVersionA.csv,"Read Pure F A","Read Pure F A",ATTIRE,CLOTHES,Study2,F,113,66,STUDY,8,8,,Study/JOL,"Study Phase2",8006,,,-1,-1,,,,1
M20304804_BNR,i0yyei9ldo,Nick_Dissertation_EX2_EP_MSU_TEXAS,1,108,2022-11-16T03:06:58+00:00,8.2973248958588,3,Pure_Forward.csv,READVersionA.csv,"Read Pure F A","Read Pure F A",DINE,EAT,Study2,F,171,77,STUDY,8,8,,Study/JOL,"Study Phase2",8001,,,-1,-1,,,,1
M20304804_BNR,i0yyei9ldo,Nick_Dissertation_EX2_EP_MSU_TEXAS,1,109,2022-11-16T03:07:06+00:00,8.1546199321747,3,Pure_Forward.csv,READVersionA.csv,"Read Pure F A","Read Pure F A",LITTER,TRASH,Study2,F,163,59,STUDY,8,8,,Study/JOL,"Study Phase2",8006,,,-1,-1,,,,1
M20304804_BNR,i0yyei9ldo,Nick_Dissertation_EX2_EP_MSU_TEXAS,1,110,2022-11-16T03:07:14+00:00,8.1732971668243,3,Pure_Forward.csv,READVersionA.csv,"Read Pure F A","Read Pure F A",LATCH,KEY,Study2,F,106,93,STUDY,8,8,,Study/JOL,"Study Phase2",8000,,,-1,-1,,,,1
M20304804_BNR,i0yyei9ldo,Nick_Dissertation_EX2_EP_MSU_TEXAS,1,111,2022-11-16T03:07:23+00:00,8.3727209568024,3,Pure_Forward.csv,READVersionA.csv,"Read Pure F A","Read Pure F A",CAVE,DARK,Study2,F,98,70,STUDY,8,8,,Study/JOL,"Study Phase2",8001,,,-1,-1,,,,0.811
M20304804_BNR,i0yyei9ldo,Nick_Dissertation_EX2_EP_MSU_TEXAS,1,112,2022-11-16T03:07:31+00:00,8.2667980194092,3,Pure_Forward.csv,READVersionA.csv,"Read Pure F A","Read Pure F A",RACKET,BALL,Study2,F,108,86,STUDY,8,8,,Study/JOL,"Study Phase2",8003,,,-1,-1,,,,1
M20304804_BNR,i0yyei9ldo,Nick_Dissertation_EX2_EP_MSU_TEXAS,1,113,2022-11-16T03:07:40+00:00,8.4171319007874,3,Pure_Forward.csv,READVersionA.csv,"Read Pure F A","Read Pure F A",CHILL,COLD,Study2,F,174,92,STUDY,8,8,,Study/JOL,"Study Phase2",8001,,,-1,-1,,,,1
M20304804_BNR,i0yyei9ldo,Nick_Dissertation_EX2_EP_MSU_TEXAS,1,114,2022-11-16T03:07:48+00:00,8.2508821487427,3,Pure_Forward.csv,READVersionA.csv,"Read Pure F A","Read Pure F A",INCENSE,SMELL,Study2,F,170,75,STUDY,8,8,,Study/JOL,"Study Phase2",8002,,,-1,-1,,,,1
M20304804_BNR,i0yyei9ldo,Nick_Dissertation_EX2_EP_MSU_TEXAS,1,115,2022-11-16T03:07:56+00:00,8.1836898326874,3,Pure_Forward.csv,READVersionA.csv,"Read Pure F A","Read Pure F A",ATTORNEY,LAW,Study2,F,104,91,STUDY,8,8,,Study/JOL,"Study Phase2",8001,,,-1,-1,,,,1
M20304804_BNR,i0yyei9ldo,Nick_Dissertation_EX2_EP_MSU_TEXAS,1,116,2022-11-16T03:08:04+00:00,8.3375551700592,3,Pure_Forward.csv,READVersionA.csv,"Read Pure F A","Read Pure F A",PILOT,PLANE,Study2,F,114,84,STUDY,8,8,,Study/JOL,"Study Phase2",8004,,,-1,-1,,,,1
M20304804_BNR,i0yyei9ldo,Nick_Dissertation_EX2_EP_MSU_TEXAS,1,117,2022-11-16T03:08:13+00:00,8.2971129417419,3,Pure_Forward.csv,READVersionA.csv,"Read Pure F A","Read Pure F A",DROWSY,SLEEP,Study2,F,111,62,STUDY,8,8,,Study/JOL,"Study Phase2",8002,,,-1,-1,,,,1
M20304804_BNR,i0yyei9ldo,Nick_Dissertation_EX2_EP_MSU_TEXAS,1,118,2022-11-16T03:08:21+00:00,8.1849670410156,3,Pure_Forward.csv,READVersionA.csv,"Read Pure F A","Read Pure F A",DETECTIVE,MYSTERY,Study2,F,160,65,STUDY,8,8,,Study/JOL,"Study Phase2",8005,,,-1,-1,,,,1
M20304804_BNR,i0yyei9ldo,Nick_Dissertation_EX2_EP_MSU_TEXAS,1,119,2022-11-16T03:08:29+00:00,8.157735824585,3,Pure_Forward.csv,READVersionA.csv,"Read Pure F A","Read Pure F A",SCALP,HEAD,Study2,F,165,89,STUDY,8,8,,Study/JOL,"Study Phase2",8001,,,-1,-1,,,,1
M20304804_BNR,i0yyei9ldo,Nick_Dissertation_EX2_EP_MSU_TEXAS,1,120,2022-11-16T03:08:37+00:00,8.2357959747314,3,Pure_Forward.csv,READVersionA.csv,"Read Pure F A","Read Pure F A",FEUD,FIGHT,Study2,F,173,96,STUDY,8,8,,Study/JOL,"Study Phase2",8001,,,-1,-1,,,,1
M20304804_BNR,i0yyei9ldo,Nick_Dissertation_EX2_EP_MSU_TEXAS,1,121,2022-11-16T03:08:45+00:00,8.2807431221008,3,Pure_Forward.csv,READVersionA.csv,"Read Pure F A","Read Pure F A",BLAZE,FIRE,Study2,F,115,64,STUDY,8,8,,Study/JOL,"Study Phase2",8006,,,-1,-1,,,,1
M20304804_BNR,i0yyei9ldo,Nick_Dissertation_EX2_EP_MSU_TEXAS,1,122,2022-11-16T03:08:54+00:00,8.3919150829315,3,Pure_Forward.csv,READVersionA.csv,"Read Pure F A","Read Pure F A",FAMINE,HUNGER,Study2,F,110,79,STUDY,8,8,,Study/JOL,"Study Phase2",8002,,,-1,-1,,,,1
M20304804_BNR,i0yyei9ldo,Nick_Dissertation_EX2_EP_MSU_TEXAS,1,123,2022-11-16T03:09:02+00:00,8.163183927536,3,Pure_Forward.csv,READVersionA.csv,"Read Pure F A","Read Pure F A",SIP,DRINK,Study2,F,97,69,STUDY,8,8,,Study/JOL,"Study Phase2",8003,,,-1,-1,,,,1
M20304804_BNR,i0yyei9ldo,Nick_Dissertation_EX2_EP_MSU_TEXAS,1,124,2022-11-16T03:09:10+00:00,8.3290929794312,3,Pure_Forward.csv,READVersionA.csv,"Read Pure F A","Read Pure F A",LITTER,TRASH,Study2,F,163,59,STUDY,8,8,,Study/JOL,"Study Phase2",8001,,,-1,-1,,,,1
M20304804_BNR,i0yyei9ldo,Nick_Dissertation_EX2_EP_MSU_TEXAS,1,125,2022-11-16T03:09:19+00:00,8.2973449230194,3,Pure_Forward.csv,READVersionA.csv,"Read Pure F A","Read Pure F A",AFFECTION,LOVE,Study2,F,175,95,STUDY,8,8,,Study/JOL,"Study Phase2",8001,,,-1,-1,,,,1
M20304804_BNR,i0yyei9ldo,Nick_Dissertation_EX2_EP_MSU_TEXAS,1,126,2022-11-16T03:09:27+00:00,8.1560530662537,3,Pure_Forward.csv,READVersionA.csv,"Read Pure F A","Read Pure F A",CACTUS,PLANT,Study2,F,158,76,STUDY,8,8,,Study/JOL,"Study Phase2",8003,,,-1,-1,,,,1
M20304804_BNR,i0yyei9ldo,Nick_Dissertation_EX2_EP_MSU_TEXAS,1,127,2022-11-16T03:09:35+00:00,8.1770870685577,3,Pure_Forward.csv,READVersionA.csv,"Read Pure F A","Read Pure F A",WORD,SENTENCE,Study2,F,101,61,STUDY,8,8,,Study/JOL,"Study Phase2",8001,,,-1,-1,,,,0.842
M20304804_BNR,i0yyei9ldo,Nick_Dissertation_EX2_EP_MSU_TEXAS,1,128,2022-11-16T03:09:43+00:00,8.2800159454346,3,Pure_Forward.csv,READVersionA.csv,"Read Pure F A","Read Pure F A",CHILI,HOT,Study2,F,107,63,STUDY,8,8,,Study/JOL,"Study Phase2",8006,,,-1,-1,,,,1
M20304804_BNR,i0yyei9ldo,Nick_Dissertation_EX2_EP_MSU_TEXAS,1,129,2022-11-16T03:09:52+00:00,8.2604019641876,3,Pure_Forward.csv,READVersionA.csv,"Read Pure F A","Read Pure F A",DOCUMENT,PAPER,Study2,F,169,85,STUDY,8,8,,Study/JOL,"Study Phase2",8001,,,-1,-1,,,,1
M20304804_BNR,i0yyei9ldo,Nick_Dissertation_EX2_EP_MSU_TEXAS,1,130,2022-11-16T03:10:00+00:00,8.1887431144714,3,Pure_Forward.csv,READVersionA.csv,"Read Pure F A","Read Pure F A",DIVISION,MATH,Study2,F,103,82,STUDY,8,8,,Study/JOL,"Study Phase2",8001,,,-1,-1,,,,1
M20304804_BNR,i0yyei9ldo,Nick_Dissertation_EX2_EP_MSU_TEXAS,1,131,2022-11-16T03:10:08+00:00,8.2976298332214,3,Pure_Forward.csv,READVersionA.csv,"Read Pure F A","Read Pure F A",STENCH,SMELL,Study2,F,112,71,STUDY,8,8,,Study/JOL,"Study Phase2",8003,,,-1,-1,,,,1
M20304804_BNR,i0yyei9ldo,Nick_Dissertation_EX2_EP_MSU_TEXAS,1,132,2022-11-16T03:10:16+00:00,8.1595799922943,3,Pure_Forward.csv,READVersionA.csv,"Read Pure F A","Read Pure F A",MULE,DONKEY,Study2,F,168,90,STUDY,8,8,,Study/JOL,"Study Phase2",8003,,,-1,-1,,,,1
M20304804_BNR,i0yyei9ldo,Nick_Dissertation_EX2_EP_MSU_TEXAS,1,133,2022-11-16T03:10:24+00:00,8.2525610923767,3,Pure_Forward.csv,READVersionA.csv,"Read Pure F A","Read Pure F A",ADJOURN,END,Study2,F,161,94,STUDY,8,8,,Study/JOL,"Study Phase2",8000,,,-1,-1,,,,1
M20304804_BNR,i0yyei9ldo,Nick_Dissertation_EX2_EP_MSU_TEXAS,1,134,2022-11-16T03:10:33+00:00,8.1933879852295,3,Pure_Forward.csv,READVersionA.csv,"Read Pure F A","Read Pure F A",SHEARS,SCISSORS,Study2,F,172,57,STUDY,8,8,,Study/JOL,"Study Phase2",8002,,,-1,-1,,,,0.846
M20304804_BNR,i0yyei9ldo,Nick_Dissertation_EX2_EP_MSU_TEXAS,1,135,2022-11-16T03:10:41+00:00,8.2446889877319,3,Pure_Forward.csv,READVersionA.csv,"Read Pure F A","Read Pure F A",FURRY,DOG,Study2,F,162,80,STUDY,8,8,,Study/JOL,"Study Phase2",8001,,,-1,-1,,,,1
M20304804_BNR,i0yyei9ldo,Nick_Dissertation_EX2_EP_MSU_TEXAS,1,136,2022-11-16T03:10:49+00:00,8.162593126297,3,Pure_Forward.csv,READVersionA.csv,"Read Pure F A","Read Pure F A",CHERRY,RED,Study2,F,164,74,STUDY,8,8,,Study/JOL,"Study Phase2",8001,,,-1,-1,,,,1
M20304804_BNR,i0yyei9ldo,Nick_Dissertation_EX2_EP_MSU_TEXAS,1,137,2022-11-16T03:10:57+00:00,8.2745609283447,3,Pure_Forward.csv,READVersionA.csv,"Read Pure F A","Read Pure F A",FANTASTIC,GREAT,Study2,F,105,78,STUDY,8,8,,Study/JOL,"Study Phase2",8006,,,-1,-1,,,,1
M20304804_BNR,i0yyei9ldo,Nick_Dissertation_EX2_EP_MSU_TEXAS,1,138,2022-11-16T03:11:06+00:00,8.3258738517761,3,Pure_Forward.csv,READVersionA.csv,"Read Pure F A","Read Pure F A",CLUE,GAME,Study2,F,157,68,STUDY,8,8,,Study/JOL,"Study Phase2",8001,,,-1,-1,,,,1
M20304804_BNR,i0yyei9ldo,Nick_Dissertation_EX2_EP_MSU_TEXAS,1,139,2022-11-16T03:11:14+00:00,8.1683361530304,3,Pure_Forward.csv,READVersionA.csv,"Read Pure F A","Read Pure F A",SHOELACE,TIE,Study2,F,159,67,STUDY,8,8,,Study/JOL,"Study Phase2",8002,,,-1,-1,,,,1
M20304804_BNR,i0yyei9ldo,Nick_Dissertation_EX2_EP_MSU_TEXAS,1,140,2022-11-16T03:11:22+00:00,8.1634058952332,3,Pure_Forward.csv,READVersionA.csv,"Read Pure F A","Read Pure F A",PAW,DOG,Study1,F,15,23,STUDY,8,8,,Study/JOL,"Study Phase2",8004,,,-1,-1,,,,1
M20304804_BNR,i0yyei9ldo,Nick_Dissertation_EX2_EP_MSU_TEXAS,1,141,2022-11-16T03:11:30+00:00,8.2397060394287,3,Pure_Forward.csv,READVersionA.csv,"Read Pure F A","Read Pure F A",DAYS,WEEKS,BUFFER4,Buffer,176,97,STUDY,8,8,,Study/JOL,BUFFER4,8005,,,-1,-1,,,,1
M20304804_BNR,i0yyei9ldo,Nick_Dissertation_EX2_EP_MSU_TEXAS,1,142,2022-11-16T03:11:39+00:00,8.6732220649719,3,Pure_Forward.csv,READVersionA.csv,"Read Pure F A","Read Pure F A",MONTH,YEAR,BUFFER4,Buffer,177,100,STUDY,8,8,,Study/JOL,BUFFER4,8000,,,-1,-1,,,,1
M20304804_BNR,i0yyei9ldo,Nick_Dissertation_EX2_EP_MSU_TEXAS,1,143,2022-11-16T03:11:47+00:00,8.1690158843994,3,Pure_Forward.csv,READVersionA.csv,"Read Pure F A","Read Pure F A",TOOL,SHED,BUFFER4,Buffer,178,98,STUDY,8,8,,Study/JOL,BUFFER4,8004,,,-1,-1,,,,1
M20304804_BNR,i0yyei9ldo,Nick_Dissertation_EX2_EP_MSU_TEXAS,1,144,2022-11-16T03:11:55+00:00,8.2795009613037,3,Pure_Forward.csv,READVersionA.csv,"Read Pure F A","Read Pure F A",OCTOBER,SPOOKY,BUFFER4,Buffer,180,101,STUDY,8,8,,Study/JOL,BUFFER4,8000,,,-1,-1,,,,1
M20304804_BNR,i0yyei9ldo,Nick_Dissertation_EX2_EP_MSU_TEXAS,1,145,2022-11-16T03:12:03+00:00,8.1632990837097,3,Pure_Forward.csv,READVersionA.csv,"Read Pure F A","Read Pure F A",SPRING,MARCH,BUFFER4,Buffer,179,99,STUDY,8,8,,Study/JOL,BUFFER4,8003,,,-1,-1,,,,1
M20304804_BNR,i0yyei9ldo,Nick_Dissertation_EX2_EP_MSU_TEXAS,1,146,2022-11-16T03:12:06+00:00,2.3859860897064,3,Pure_Forward.csv,READVersionA.csv,"Read Pure F A","Read Pure F A",,,,,,0,Instruct,User,-,"You have completed this section. Please press Enter.",Filler_Instruction,Instruct5,2108,,,-1,-1,,,,1
M20304804_BNR,i0yyei9ldo,Nick_Dissertation_EX2_EP_MSU_TEXAS,1,147,2022-11-16T03:14:06+00:00,120.29082584381,3,Pure_Forward.csv,READVersionA.csv,"Read Pure F A","Read Pure F A",,,,,,0,FreeRecall,120,120,"Please list the 50 US states in reverse alphabetical order (z - a). The task will automatically advance to the next screen after two minutes.",,Filler2,120002,"washington west virginia viginia texas south carolina south dakota rhode island ",0,10841,111944,0,0,,1
M20304804_BNR,i0yyei9ldo,Nick_Dissertation_EX2_EP_MSU_TEXAS,1,148,2022-11-16T03:14:17+00:00,11.049293994904,3,Pure_Forward.csv,READVersionA.csv,"Read Pure F A","Read Pure F A",,,,,,0,Instruct,-,10,"You will now be presented with the first word from each of the previously studied item pairs. Please type the missing word. If you do not know the word, you may guess or press Enter to skip forward to the next pair.",,Instruct6,10758,,,-1,-1,,,,0.88
M20304804_BNR,i0yyei9ldo,Nick_Dissertation_EX2_EP_MSU_TEXAS,1,149,2022-11-16T03:14:20+00:00,3.1835920810699,3,Pure_Forward.csv,READVersionA.csv,"Read Pure F A","Read Pure F A",MULE,DONKEY,Study2,F,168,90,Test,User,-,,Recall,Recall2,3015,donkey,100,1950,2720,1,1,,1
M20304804_BNR,i0yyei9ldo,Nick_Dissertation_EX2_EP_MSU_TEXAS,1,150,2022-11-16T03:14:23+00:00,2.704577922821,3,Pure_Forward.csv,READVersionA.csv,"Read Pure F A","Read Pure F A",PILOT,PLANE,Study2,F,114,84,Test,User,-,,Recall,Recall2,2450,plane,100,1667,2107,1,1,,1
M20304804_BNR,i0yyei9ldo,Nick_Dissertation_EX2_EP_MSU_TEXAS,1,151,2022-11-16T03:14:25+00:00,2.1065142154694,3,Pure_Forward.csv,READVersionA.csv,"Read Pure F A","Read Pure F A",ATTORNEY,LAW,Study2,F,104,91,Test,User,-,,Recall,Recall2,1942,law,100,1597,1798,1,1,,1
M20304804_BNR,i0yyei9ldo,Nick_Dissertation_EX2_EP_MSU_TEXAS,1,152,2022-11-16T03:14:28+00:00,2.8134109973907,3,Pure_Forward.csv,READVersionA.csv,"Read Pure F A","Read Pure F A",LITTER,TRASH,Study2,F,163,59,Test,User,-,,Recall,Recall2,2641,trash,100,1810,2411,1,1,,1
M20304804_BNR,i0yyei9ldo,Nick_Dissertation_EX2_EP_MSU_TEXAS,1,153,2022-11-16T03:14:32+00:00,3.691086769104,3,Pure_Forward.csv,READVersionA.csv,"Read Pure F A","Read Pure F A",ATTIRE,CLOTHES,Study2,F,113,66,Test,User,-,,Recall,Recall2,3535,clothes,100,2029,3297,1,1,,1
M20304804_BNR,i0yyei9ldo,Nick_Dissertation_EX2_EP_MSU_TEXAS,1,154,2022-11-16T03:14:34+00:00,2.3124871253967,3,Pure_Forward.csv,READVersionA.csv,"Read Pure F A","Read Pure F A",DETECTIVE,MYSTERY,Study2,F,160,65,Test,User,-,,Recall,Recall2,2026,case,36.363636363636,1486,1876,0,0,,1
M20304804_BNR,i0yyei9ldo,Nick_Dissertation_EX2_EP_MSU_TEXAS,1,155,2022-11-16T03:14:36+00:00,1.8022921085358,3,Pure_Forward.csv,READVersionA.csv,"Read Pure F A","Read Pure F A",FEUD,FIGHT,Study2,F,173,96,Test,User,-,,Recall,Recall2,1643,fight,100,1068,1513,1,1,,1
M20304804_BNR,i0yyei9ldo,Nick_Dissertation_EX2_EP_MSU_TEXAS,1,156,2022-11-16T03:14:38+00:00,2.1708738803864,3,Pure_Forward.csv,READVersionA.csv,"Read Pure F A","Read Pure F A",CHILL,COLD,Study2,F,174,92,Test,User,-,,Recall,Recall2,2001,"cold\",88.888888888889,1471,1937,0,1,,1
M20304804_BNR,i0yyei9ldo,Nick_Dissertation_EX2_EP_MSU_TEXAS,1,157,2022-11-16T03:14:47+00:00,9.3213698863983,3,Pure_Forward.csv,READVersionA.csv,"Read Pure F A","Read Pure F A",DOCUMENT,PAPER,Study2,F,169,85,Test,User,-,,Recall,Recall2,9108,paper,100,8475,9049,1,1,,1
M20304804_BNR,i0yyei9ldo,Nick_Dissertation_EX2_EP_MSU_TEXAS,1,158,2022-11-16T03:14:52+00:00,4.8098800182343,3,Pure_Forward.csv,READVersionA.csv,"Read Pure F A","Read Pure F A",CHERRY,RED,Study2,F,164,74,Test,User,-,,Recall,Recall2,4649,red,100,2460,4496,1,1,,1
M20304804_BNR,i0yyei9ldo,Nick_Dissertation_EX2_EP_MSU_TEXAS,1,159,2022-11-16T03:14:55+00:00,3.2512271404266,3,Pure_Forward.csv,READVersionA.csv,"Read Pure F A","Read Pure F A",FAMINE,HUNGER,Study2,F,110,79,Test,User,-,,Recall,Recall2,3071,hunger,100,2183,2940,1,1,,1
M20304804_BNR,i0yyei9ldo,Nick_Dissertation_EX2_EP_MSU_TEXAS,1,160,2022-11-16T03:14:59+00:00,3.6222059726715,3,Pure_Forward.csv,READVersionA.csv,"Read Pure F A","Read Pure F A",SHEARS,SCISSORS,Study2,F,172,57,Test,User,-,,Recall,Recall2,3297,tool,16.666666666667,2529,3033,0,0,,1
M20304804_BNR,i0yyei9ldo,Nick_Dissertation_EX2_EP_MSU_TEXAS,1,161,2022-11-16T03:15:03+00:00,3.9428880214691,3,Pure_Forward.csv,READVersionA.csv,"Read Pure F A","Read Pure F A",RACKET,BALL,Study2,F,108,86,Test,User,-,,Recall,Recall2,3620,ball,100,2806,3188,1,1,,1
M20304804_BNR,i0yyei9ldo,Nick_Dissertation_EX2_EP_MSU_TEXAS,1,162,2022-11-16T03:15:06+00:00,2.9233479499817,3,Pure_Forward.csv,READVersionA.csv,"Read Pure F A","Read Pure F A",SHOELACE,TIE,Study2,F,159,67,Test,User,-,,Recall,Recall2,2758,shoe,28.571428571429,2161,2440,0,0,,1
M20304804_BNR,i0yyei9ldo,Nick_Dissertation_EX2_EP_MSU_TEXAS,1,163,2022-11-16T03:15:12+00:00,5.7171790599823,3,Pure_Forward.csv,READVersionA.csv,"Read Pure F A","Read Pure F A",ENOUGH,FULL,Study2,F,96,88,Test,User,-,,Recall,Recall2,5454,stop,0,4673,5167,0,0,,1
M20304804_BNR,i0yyei9ldo,Nick_Dissertation_EX2_EP_MSU_TEXAS,1,164,2022-11-16T03:15:14+00:00,2.0962789058685,3,Pure_Forward.csv,READVersionA.csv,"Read Pure F A","Read Pure F A",GROWTH,HEIGHT,Study2,F,100,87,Test,User,-,,Recall,Recall2,1844,height,100,1118,1688,1,1,,1
M20304804_BNR,i0yyei9ldo,Nick_Dissertation_EX2_EP_MSU_TEXAS,1,165,2022-11-16T03:15:16+00:00,2.0665121078491,3,Pure_Forward.csv,READVersionA.csv,"Read Pure F A","Read Pure F A",CHORE,WORK,Study2,F,109,81,Test,User,-,,Recall,Recall2,1821,"work\",88.888888888889,1298,1804,0,1,,1
M20304804_BNR,i0yyei9ldo,Nick_Dissertation_EX2_EP_MSU_TEXAS,1,166,2022-11-16T03:15:18+00:00,2.5508718490601,3,Pure_Forward.csv,READVersionA.csv,"Read Pure F A","Read Pure F A",AFFECTION,LOVE,Study2,F,175,95,Test,User,-,,Recall,Recall2,2339,love,100,1836,2184,1,1,,1
M20304804_BNR,i0yyei9ldo,Nick_Dissertation_EX2_EP_MSU_TEXAS,1,167,2022-11-16T03:15:22+00:00,3.2356910705566,3,Pure_Forward.csv,READVersionA.csv,"Read Pure F A","Read Pure F A",SEIZE,TAKE,Study2,F,99,72,Test,User,-,,Recall,Recall2,3048,stop,25,2375,2765,0,0,,1
M20304804_BNR,i0yyei9ldo,Nick_Dissertation_EX2_EP_MSU_TEXAS,1,168,2022-11-16T03:15:32+00:00,10.214047908783,3,Pure_Forward.csv,READVersionA.csv,"Read Pure F A","Read Pure F A",INCENSE,SMELL,Study2,F,170,75,Test,User,-,,Recall,Recall2,9898,,0,-1,-1,0,0,,1
M20304804_BNR,i0yyei9ldo,Nick_Dissertation_EX2_EP_MSU_TEXAS,1,169,2022-11-16T03:15:35+00:00,2.8404061794281,3,Pure_Forward.csv,READVersionA.csv,"Read Pure F A","Read Pure F A",DINE,EAT,Study2,F,171,77,Test,User,-,,Recall,Recall2,2669,eat,100,1634,2013,1,1,,1
M20304804_BNR,i0yyei9ldo,Nick_Dissertation_EX2_EP_MSU_TEXAS,1,170,2022-11-16T03:15:38+00:00,3.8692898750305,3,Pure_Forward.csv,READVersionA.csv,"Read Pure F A","Read Pure F A",DRIVER,CAR,Study2,F,166,60,Test,User,-,,Recall,Recall2,3596,ride,28.571428571429,2598,2930,0,0,,1
M20304804_BNR,i0yyei9ldo,Nick_Dissertation_EX2_EP_MSU_TEXAS,1,171,2022-11-16T03:15:41+00:00,2.4272749423981,3,Pure_Forward.csv,READVersionA.csv,"Read Pure F A","Read Pure F A",DROWSY,SLEEP,Study2,F,111,62,Test,User,-,,Recall,Recall2,1882,tired,20,1269,1744,0,0,,1
M20304804_BNR,i0yyei9ldo,Nick_Dissertation_EX2_EP_MSU_TEXAS,1,172,2022-11-16T03:15:43+00:00,2.0962970256805,3,Pure_Forward.csv,READVersionA.csv,"Read Pure F A","Read Pure F A",CLUE,GAME,Study2,F,157,68,Test,User,-,,Recall,Recall2,1714,game,100,1224,1522,1,1,,1
M20304804_BNR,i0yyei9ldo,Nick_Dissertation_EX2_EP_MSU_TEXAS,1,173,2022-11-16T03:15:46+00:00,2.6210541725159,3,Pure_Forward.csv,READVersionA.csv,"Read Pure F A","Read Pure F A",SCALP,HEAD,Study2,F,165,89,Test,User,-,,Recall,Recall2,2343,hair,50,1928,2195,0,0,,1
M20304804_BNR,i0yyei9ldo,Nick_Dissertation_EX2_EP_MSU_TEXAS,1,174,2022-11-16T03:15:48+00:00,2.2314188480377,3,Pure_Forward.csv,READVersionA.csv,"Read Pure F A","Read Pure F A",CACTUS,PLANT,Study2,F,158,76,Test,User,-,,Recall,Recall2,2050,plant,100,1434,1882,1,1,,1
M20304804_BNR,i0yyei9ldo,Nick_Dissertation_EX2_EP_MSU_TEXAS,1,175,2022-11-16T03:15:55+00:00,7.6597580909729,3,Pure_Forward.csv,READVersionA.csv,"Read Pure F A","Read Pure F A",LATCH,KEY,Study2,F,106,93,Test,User,-,,Recall,Recall2,7473,together,18.181818181818,6280,7365,0,0,,1
M20304804_BNR,i0yyei9ldo,Nick_Dissertation_EX2_EP_MSU_TEXAS,1,176,2022-11-16T03:15:59+00:00,3.4146790504456,3,Pure_Forward.csv,READVersionA.csv,"Read Pure F A","Read Pure F A",FANTASTIC,GREAT,Study2,F,105,78,Test,User,-,,Recall,Recall2,3256,best,44.444444444444,1524,3127,0,0,,1
M20304804_BNR,i0yyei9ldo,Nick_Dissertation_EX2_EP_MSU_TEXAS,1,177,2022-11-16T03:16:05+00:00,6.0696749687195,3,Pure_Forward.csv,READVersionA.csv,"Read Pure F A","Read Pure F A",CHILI,HOT,Study2,F,107,63,Test,User,-,,Recall,Recall2,5901,dog,33.333333333333,1416,5675,0,0,,1
M20304804_BNR,i0yyei9ldo,Nick_Dissertation_EX2_EP_MSU_TEXAS,1,178,2022-11-16T03:16:08+00:00,3.3104870319366,3,Pure_Forward.csv,READVersionA.csv,"Read Pure F A","Read Pure F A",WASP,BUG,Study2,F,102,73,Test,User,-,,Recall,Recall2,3153,sting,25,2118,2876,0,0,,1
M20304804_BNR,i0yyei9ldo,Nick_Dissertation_EX2_EP_MSU_TEXAS,1,179,2022-11-16T03:16:12+00:00,3.7600209712982,3,Pure_Forward.csv,READVersionA.csv,"Read Pure F A","Read Pure F A",CAVE,DARK,Study2,F,98,70,Test,User,-,,Recall,Recall2,3592,dark,100,2939,3386,1,1,,1
M20304804_BNR,i0yyei9ldo,Nick_Dissertation_EX2_EP_MSU_TEXAS,1,180,2022-11-16T03:16:14+00:00,2.2673850059509,3,Pure_Forward.csv,READVersionA.csv,"Read Pure F A","Read Pure F A",SIP,DRINK,Study2,F,97,69,Test,User,-,,Recall,Recall2,2010,drink,100,1227,1811,1,1,,1
M20304804_BNR,i0yyei9ldo,Nick_Dissertation_EX2_EP_MSU_TEXAS,1,181,2022-11-16T03:16:28+00:00,13.733289003372,3,Pure_Forward.csv,READVersionA.csv,"Read Pure F A","Read Pure F A",WORD,SENTENCE,Study2,F,101,61,Test,User,-,,Recall,Recall2,13562,read,16.666666666667,9052,13438,0,0,,1
M20304804_BNR,i0yyei9ldo,Nick_Dissertation_EX2_EP_MSU_TEXAS,1,182,2022-11-16T03:16:30+00:00,2.2234439849854,3,Pure_Forward.csv,READVersionA.csv,"Read Pure F A","Read Pure F A",LITTER,TRASH,Study2,F,163,59,Test,User,-,,Recall,Recall2,2034,trash,100,1243,1845,1,1,,1
M20304804_BNR,i0yyei9ldo,Nick_Dissertation_EX2_EP_MSU_TEXAS,1,183,2022-11-16T03:16:33+00:00,2.259712934494,3,Pure_Forward.csv,READVersionA.csv,"Read Pure F A","Read Pure F A",FURRY,DOG,Study2,F,162,80,Test,User,-,,Recall,Recall2,2099,dog,100,940,1623,1,1,,1
M20304804_BNR,i0yyei9ldo,Nick_Dissertation_EX2_EP_MSU_TEXAS,1,184,2022-11-16T03:16:35+00:00,2.191241979599,3,Pure_Forward.csv,READVersionA.csv,"Read Pure F A","Read Pure F A",BLAZE,FIRE,Study2,F,115,64,Test,User,-,,Recall,Recall2,1508,fire,100,1094,1410,1,1,,1
M20304804_BNR,i0yyei9ldo,Nick_Dissertation_EX2_EP_MSU_TEXAS,1,185,2022-11-16T03:16:37+00:00,1.8973870277405,3,Pure_Forward.csv,READVersionA.csv,"Read Pure F A","Read Pure F A",ADJOURN,END,Study2,F,161,94,Test,User,-,,Recall,Recall2,1636,end,100,1282,1462,1,1,,1
M20304804_BNR,i0yyei9ldo,Nick_Dissertation_EX2_EP_MSU_TEXAS,1,186,2022-11-16T03:16:39+00:00,2.458044052124,3,Pure_Forward.csv,READVersionA.csv,"Read Pure F A","Read Pure F A",DIVISION,MATH,Study2,F,103,82,Test,User,-,,Recall,Recall2,2258,math,100,1722,2034,1,1,,1
M20304804_BNR,i0yyei9ldo,Nick_Dissertation_EX2_EP_MSU_TEXAS,1,187,2022-11-16T03:16:42+00:00,2.7651219367981,3,Pure_Forward.csv,READVersionA.csv,"Read Pure F A","Read Pure F A",STENCH,SMELL,Study2,F,112,71,Test,User,-,,Recall,Recall2,2586,stink,20,1643,2360,0,0,,1
M20304804_BNR,i0yyei9ldo,Nick_Dissertation_EX2_EP_MSU_TEXAS,1,188,2022-11-16T03:16:44+00:00,2.0362100601196,3,Pure_Forward.csv,READVersionA.csv,"Read Pure F A","Read Pure F A",PAW,DOG,Study1,F,15,23,Test,User,-,,Recall,Recall2,1874,dog,100,1476,1732,1,1,,1
M20304804_BNR,i0yyei9ldo,Nick_Dissertation_EX2_EP_MSU_TEXAS,1,189,2022-11-16T03:16:46+00:00,1.9262318611145,3,Pure_Forward.csv,READVersionA.csv,"Read Pure F A","Read Pure F A",,,,,,0,Instruct,User,-,"You have completed this section. Please press Enter.",,Instruct7,1769,,,-1,-1,,,,1
M20304804_BNR,i0yyei9ldo,Nick_Dissertation_EX2_EP_MSU_TEXAS,1,190,2022-11-16T03:16:49+00:00,2.713525056839,3,Pure_Forward.csv,READVersionA.csv,"Read Pure F A","Read Pure F A",,,,,,0,Instruct,User,-,"The following screen will ask you a few questions abour your experience today. You must complete these questions to receive credit.",,Instruct8,2528,,,-1,-1,,,,1
