Username,ID,ExperimentName,Session,Trial,Date,TimeDif,"Condition Number","Stimuli File","Order File","Condition Description","Condition Notes",Stimuli*Cue,Stimuli*Answer,Stimuli*Shuffle,"Stimuli*Stimuli Notes",Stimuli*Value,Procedure*Item,"Procedure*Trial Type","Procedure*Max Time","Procedure*Min Time",Procedure*Text,"Procedure*Procedure Notes",Procedure*Shuffle,Response*RT,Response*Response,Response*Accuracy,Response*RTfirst,Response*RTlast,Response*strictAcc,Response*lenientAcc,Response*focus,Response*Focus
w10082420,rqn6slwf97,Nick_Dissertation_EX2_EP,1,1,2021-09-15T14:35:42-07:00,12.948317050934,4,Pure_Forward.csv,READVersionB.csv,"Read Pure F B","Read Pure F B",,,,,,0,Instruct,-,10,"Please study each of the following word pairs. Remember that your memory will be tested! Each pair will be displayed on the computer screen and will automatically advance to the next pair. Press ENTER when you are ready to begin.",Initial_Instruct,Instruct1,12456,,,-1,-1,,,,1
w10082420,rqn6slwf97,Nick_Dissertation_EX2_EP,1,2,2021-09-15T14:35:50-07:00,8.4784719944,4,Pure_Forward.csv,READVersionB.csv,"Read Pure F B","Read Pure F B",NOODLE,STRING,BUFFER3,Buffer,92,55,STUDY,8,8,,Study/JOL,BUFFER,8002,,,-1,-1,,,,1
w10082420,rqn6slwf97,Nick_Dissertation_EX2_EP,1,3,2021-09-15T14:35:59-07:00,8.4193689823151,4,Pure_Forward.csv,READVersionB.csv,"Read Pure F B","Read Pure F B",ICE,FROZEN,BUFFER3,Buffer,94,54,STUDY,8,8,,Study/JOL,BUFFER,8002,,,-1,-1,,,,1
w10082420,rqn6slwf97,Nick_Dissertation_EX2_EP,1,4,2021-09-15T14:36:07-07:00,8.3894228935242,4,Pure_Forward.csv,READVersionB.csv,"Read Pure F B","Read Pure F B",CARROT,POTATO,BUFFER3,Buffer,91,53,STUDY,8,8,,Study/JOL,BUFFER,8003,,,-1,-1,,,,1
w10082420,rqn6slwf97,Nick_Dissertation_EX2_EP,1,5,2021-09-15T14:36:15-07:00,8.410747051239,4,Pure_Forward.csv,READVersionB.csv,"Read Pure F B","Read Pure F B",SHRIMP,FISH,BUFFER3,Buffer,93,52,STUDY,8,8,,Study/JOL,BUFFER,8003,,,-1,-1,,,,1
w10082420,rqn6slwf97,Nick_Dissertation_EX2_EP,1,6,2021-09-15T14:36:24-07:00,8.3588130474091,4,Pure_Forward.csv,READVersionB.csv,"Read Pure F B","Read Pure F B",CAMP,ADVENTURE,BUFFER3,Buffer,95,56,STUDY,8,8,,Study/JOL,BUFFER,8002,,,-1,-1,,,,1
w10082420,rqn6slwf97,Nick_Dissertation_EX2_EP,1,7,2021-09-15T14:36:32-07:00,8.4208509922028,4,Pure_Forward.csv,READVersionB.csv,"Read Pure F B","Read Pure F B",CHOP,CUT,Study2,F,167,59,STUDY,8,8,,Study/JOL,"Study Phase",8003,,,-1,-1,,,,1
w10082420,rqn6slwf97,Nick_Dissertation_EX2_EP,1,8,2021-09-15T14:36:41-07:00,8.3996710777283,4,Pure_Forward.csv,READVersionB.csv,"Read Pure F B","Read Pure F B",SEIZE,TAKE,Study2,F,99,75,STUDY,8,8,,Study/JOL,"Study Phase",8002,,,-1,-1,,,,1
w10082420,rqn6slwf97,Nick_Dissertation_EX2_EP,1,9,2021-09-15T14:36:49-07:00,8.4396660327911,4,Pure_Forward.csv,READVersionB.csv,"Read Pure F B","Read Pure F B",WASP,BUG,Study2,F,102,95,STUDY,8,8,,Study/JOL,"Study Phase",8004,,,-1,-1,,,,1
w10082420,rqn6slwf97,Nick_Dissertation_EX2_EP,1,10,2021-09-15T14:36:57-07:00,8.3607409000397,4,Pure_Forward.csv,READVersionB.csv,"Read Pure F B","Read Pure F B",DRIVER,CAR,Study2,F,166,72,STUDY,8,8,,Study/JOL,"Study Phase",8001,,,-1,-1,,,,1
w10082420,rqn6slwf97,Nick_Dissertation_EX2_EP,1,11,2021-09-15T14:37:06-07:00,8.3992750644684,4,Pure_Forward.csv,READVersionB.csv,"Read Pure F B","Read Pure F B",ATTIRE,CLOTHES,Study2,F,113,66,STUDY,8,8,,Study/JOL,"Study Phase",8002,,,-1,-1,,,,1
w10082420,rqn6slwf97,Nick_Dissertation_EX2_EP,1,12,2021-09-15T14:37:14-07:00,8.4021730422974,4,Pure_Forward.csv,READVersionB.csv,"Read Pure F B","Read Pure F B",TUNA,FISH,Study1,F,25,23,STUDY,8,8,,Study/JOL,"Study Phase",8002,,,-1,-1,,,,1
w10082420,rqn6slwf97,Nick_Dissertation_EX2_EP,1,13,2021-09-15T14:37:23-07:00,8.3778898715973,4,Pure_Forward.csv,READVersionB.csv,"Read Pure F B","Read Pure F B",DROWSY,SLEEP,Study2,F,111,76,STUDY,8,8,,Study/JOL,"Study Phase",8005,,,-1,-1,,,,1
w10082420,rqn6slwf97,Nick_Dissertation_EX2_EP,1,14,2021-09-15T14:37:31-07:00,8.4261181354523,4,Pure_Forward.csv,READVersionB.csv,"Read Pure F B","Read Pure F B",GROWTH,HEIGHT,Study2,F,100,78,STUDY,8,8,,Study/JOL,"Study Phase",8006,,,-1,-1,,,,1
w10082420,rqn6slwf97,Nick_Dissertation_EX2_EP,1,15,2021-09-15T14:37:39-07:00,8.4345409870148,4,Pure_Forward.csv,READVersionB.csv,"Read Pure F B","Read Pure F B",CHILI,HOT,Study2,F,107,90,STUDY,8,8,,Study/JOL,"Study Phase",8002,,,-1,-1,,,,1
w10082420,rqn6slwf97,Nick_Dissertation_EX2_EP,1,16,2021-09-15T14:37:48-07:00,8.5598528385162,4,Pure_Forward.csv,READVersionB.csv,"Read Pure F B","Read Pure F B",WORD,SENTENCE,Study2,F,101,81,STUDY,8,8,,Study/JOL,"Study Phase",8002,,,-1,-1,,,,1
w10082420,rqn6slwf97,Nick_Dissertation_EX2_EP,1,17,2021-09-15T14:37:56-07:00,8.3954119682312,4,Pure_Forward.csv,READVersionB.csv,"Read Pure F B","Read Pure F B",BLAZE,FIRE,Study2,F,115,79,STUDY,8,8,,Study/JOL,"Study Phase",8003,,,-1,-1,,,,1
w10082420,rqn6slwf97,Nick_Dissertation_EX2_EP,1,18,2021-09-15T14:38:05-07:00,8.3796861171722,4,Pure_Forward.csv,READVersionB.csv,"Read Pure F B","Read Pure F B",SCALP,HEAD,Study2,F,165,65,STUDY,8,8,,Study/JOL,"Study Phase",8002,,,-1,-1,,,,1
w10082420,rqn6slwf97,Nick_Dissertation_EX2_EP,1,19,2021-09-15T14:38:13-07:00,8.3840730190277,4,Pure_Forward.csv,READVersionB.csv,"Read Pure F B","Read Pure F B",ATTORNEY,LAW,Study2,F,104,80,STUDY,8,8,,Study/JOL,"Study Phase",8004,,,-1,-1,,,,1
w10082420,rqn6slwf97,Nick_Dissertation_EX2_EP,1,20,2021-09-15T14:38:22-07:00,8.4150440692902,4,Pure_Forward.csv,READVersionB.csv,"Read Pure F B","Read Pure F B",FAMINE,HUNGER,Study2,F,110,64,STUDY,8,8,,Study/JOL,"Study Phase",8002,,,-1,-1,,,,1
w10082420,rqn6slwf97,Nick_Dissertation_EX2_EP,1,21,2021-09-15T14:38:30-07:00,8.4011609554291,4,Pure_Forward.csv,READVersionB.csv,"Read Pure F B","Read Pure F B",CACTUS,PLANT,Study2,F,158,89,STUDY,8,8,,Study/JOL,"Study Phase",8002,,,-1,-1,,,,1
w10082420,rqn6slwf97,Nick_Dissertation_EX2_EP,1,22,2021-09-15T14:38:38-07:00,8.3795619010925,4,Pure_Forward.csv,READVersionB.csv,"Read Pure F B","Read Pure F B",ENOUGH,FULL,Study2,F,96,70,STUDY,8,8,,Study/JOL,"Study Phase",8002,,,-1,-1,,,,1
w10082420,rqn6slwf97,Nick_Dissertation_EX2_EP,1,23,2021-09-15T14:38:47-07:00,8.6152560710907,4,Pure_Forward.csv,READVersionB.csv,"Read Pure F B","Read Pure F B",EXTENSION,LONG,Study2,F,156,69,STUDY,8,8,,Study/JOL,"Study Phase",8002,,,-1,-1,,,,1
w10082420,rqn6slwf97,Nick_Dissertation_EX2_EP,1,24,2021-09-15T14:38:55-07:00,8.4100849628448,4,Pure_Forward.csv,READVersionB.csv,"Read Pure F B","Read Pure F B",CHILL,COLD,Study2,F,174,92,STUDY,8,8,,Study/JOL,"Study Phase",8002,,,-1,-1,,,,1
w10082420,rqn6slwf97,Nick_Dissertation_EX2_EP,1,25,2021-09-15T14:39:04-07:00,8.399719953537,4,Pure_Forward.csv,READVersionB.csv,"Read Pure F B","Read Pure F B",STENCH,SMELL,Study2,F,112,87,STUDY,8,8,,Study/JOL,"Study Phase",8004,,,-1,-1,,,,1
w10082420,rqn6slwf97,Nick_Dissertation_EX2_EP,1,26,2021-09-15T14:39:12-07:00,8.3801620006561,4,Pure_Forward.csv,READVersionB.csv,"Read Pure F B","Read Pure F B",DINE,EAT,Study2,F,171,85,STUDY,8,8,,Study/JOL,"Study Phase",8002,,,-1,-1,,,,1
w10082420,rqn6slwf97,Nick_Dissertation_EX2_EP,1,27,2021-09-15T14:39:21-07:00,8.3795709609985,4,Pure_Forward.csv,READVersionB.csv,"Read Pure F B","Read Pure F B",ADJOURN,END,Study2,F,161,71,STUDY,8,8,,Study/JOL,"Study Phase",8002,,,-1,-1,,,,1
w10082420,rqn6slwf97,Nick_Dissertation_EX2_EP,1,28,2021-09-15T14:39:29-07:00,8.3808300495148,4,Pure_Forward.csv,READVersionB.csv,"Read Pure F B","Read Pure F B",SHEARS,SCISSORS,Study2,F,172,68,STUDY,8,8,,Study/JOL,"Study Phase",8013,,,-1,-1,,,,1
w10082420,rqn6slwf97,Nick_Dissertation_EX2_EP,1,29,2021-09-15T14:39:37-07:00,8.3789260387421,4,Pure_Forward.csv,READVersionB.csv,"Read Pure F B","Read Pure F B",AFFECTION,LOVE,Study2,F,175,91,STUDY,8,8,,Study/JOL,"Study Phase",8002,,,-1,-1,,,,1
w10082420,rqn6slwf97,Nick_Dissertation_EX2_EP,1,30,2021-09-15T14:39:46-07:00,8.5899529457092,4,Pure_Forward.csv,READVersionB.csv,"Read Pure F B","Read Pure F B",MULE,DONKEY,Study2,F,168,86,STUDY,8,8,,Study/JOL,"Study Phase",8002,,,-1,-1,,,,1
w10082420,rqn6slwf97,Nick_Dissertation_EX2_EP,1,31,2021-09-15T14:39:55-07:00,8.5807240009308,4,Pure_Forward.csv,READVersionB.csv,"Read Pure F B","Read Pure F B",SHOELACE,TIE,Study2,F,159,67,STUDY,8,8,,Study/JOL,"Study Phase",8004,,,-1,-1,,,,1
w10082420,rqn6slwf97,Nick_Dissertation_EX2_EP,1,32,2021-09-15T14:40:03-07:00,8.6717159748077,4,Pure_Forward.csv,READVersionB.csv,"Read Pure F B","Read Pure F B",LITTER,TRASH,Study2,F,163,96,STUDY,8,8,,Study/JOL,"Study Phase",8002,,,-1,-1,,,,1
w10082420,rqn6slwf97,Nick_Dissertation_EX2_EP,1,33,2021-09-15T14:40:12-07:00,8.5277609825134,4,Pure_Forward.csv,READVersionB.csv,"Read Pure F B","Read Pure F B",CHOP,CUT,Study2,F,167,59,STUDY,8,8,,Study/JOL,"Study Phase",8002,,,-1,-1,,,,1
w10082420,rqn6slwf97,Nick_Dissertation_EX2_EP,1,34,2021-09-15T14:40:20-07:00,8.4298901557922,4,Pure_Forward.csv,READVersionB.csv,"Read Pure F B","Read Pure F B",FURRY,DOG,Study2,F,162,77,STUDY,8,8,,Study/JOL,"Study Phase",8002,,,-1,-1,,,,1
w10082420,rqn6slwf97,Nick_Dissertation_EX2_EP,1,35,2021-09-15T14:40:29-07:00,8.4996590614319,4,Pure_Forward.csv,READVersionB.csv,"Read Pure F B","Read Pure F B",CHORE,WORK,Study2,F,109,60,STUDY,8,8,,Study/JOL,"Study Phase",8002,,,-1,-1,,,,1
w10082420,rqn6slwf97,Nick_Dissertation_EX2_EP,1,36,2021-09-15T14:40:37-07:00,8.395653963089,4,Pure_Forward.csv,READVersionB.csv,"Read Pure F B","Read Pure F B",DETECTIVE,MYSTERY,Study2,F,160,61,STUDY,8,8,,Study/JOL,"Study Phase",8003,,,-1,-1,,,,1
w10082420,rqn6slwf97,Nick_Dissertation_EX2_EP,1,37,2021-09-15T14:40:45-07:00,8.3994660377502,4,Pure_Forward.csv,READVersionB.csv,"Read Pure F B","Read Pure F B",DOCUMENT,PAPER,Study2,F,169,84,STUDY,8,8,,Study/JOL,"Study Phase",8003,,,-1,-1,,,,1
w10082420,rqn6slwf97,Nick_Dissertation_EX2_EP,1,38,2021-09-15T14:40:54-07:00,8.4003069400787,4,Pure_Forward.csv,READVersionB.csv,"Read Pure F B","Read Pure F B",LATCH,KEY,Study2,F,106,57,STUDY,8,8,,Study/JOL,"Study Phase",8002,,,-1,-1,,,,1
w10082420,rqn6slwf97,Nick_Dissertation_EX2_EP,1,39,2021-09-15T14:41:02-07:00,8.449679851532,4,Pure_Forward.csv,READVersionB.csv,"Read Pure F B","Read Pure F B",RACKET,BALL,Study2,F,108,63,STUDY,8,8,,Study/JOL,"Study Phase",8003,,,-1,-1,,,,1
w10082420,rqn6slwf97,Nick_Dissertation_EX2_EP,1,40,2021-09-15T14:41:11-07:00,8.3700940608978,4,Pure_Forward.csv,READVersionB.csv,"Read Pure F B","Read Pure F B",FEUD,FIGHT,Study2,F,173,62,STUDY,8,8,,Study/JOL,"Study Phase",8003,,,-1,-1,,,,1
w10082420,rqn6slwf97,Nick_Dissertation_EX2_EP,1,41,2021-09-15T14:41:19-07:00,8.4220681190491,4,Pure_Forward.csv,READVersionB.csv,"Read Pure F B","Read Pure F B",CAVE,DARK,Study2,F,98,73,STUDY,8,8,,Study/JOL,"Study Phase",8002,,,-1,-1,,,,1
w10082420,rqn6slwf97,Nick_Dissertation_EX2_EP,1,42,2021-09-15T14:41:27-07:00,8.4081559181213,4,Pure_Forward.csv,READVersionB.csv,"Read Pure F B","Read Pure F B",FANTASTIC,GREAT,Study2,F,105,94,STUDY,8,8,,Study/JOL,"Study Phase",8002,,,-1,-1,,,,1
w10082420,rqn6slwf97,Nick_Dissertation_EX2_EP,1,43,2021-09-15T14:41:36-07:00,8.4410350322723,4,Pure_Forward.csv,READVersionB.csv,"Read Pure F B","Read Pure F B",CLUE,GAME,Study2,F,157,93,STUDY,8,8,,Study/JOL,"Study Phase",8002,,,-1,-1,,,,1
w10082420,rqn6slwf97,Nick_Dissertation_EX2_EP,1,44,2021-09-15T14:41:44-07:00,8.3895740509033,4,Pure_Forward.csv,READVersionB.csv,"Read Pure F B","Read Pure F B",SIP,DRINK,Study2,F,97,88,STUDY,8,8,,Study/JOL,"Study Phase",8002,,,-1,-1,,,,1
w10082420,rqn6slwf97,Nick_Dissertation_EX2_EP,1,45,2021-09-15T14:41:53-07:00,8.3797149658203,4,Pure_Forward.csv,READVersionB.csv,"Read Pure F B","Read Pure F B",DIVISION,MATH,Study2,F,103,74,STUDY,8,8,,Study/JOL,"Study Phase",8003,,,-1,-1,,,,1
w10082420,rqn6slwf97,Nick_Dissertation_EX2_EP,1,46,2021-09-15T14:42:01-07:00,8.4201719760895,4,Pure_Forward.csv,READVersionB.csv,"Read Pure F B","Read Pure F B",PILOT,PLANE,Study2,F,114,82,STUDY,8,8,,Study/JOL,"Study Phase",8003,,,-1,-1,,,,1
w10082420,rqn6slwf97,Nick_Dissertation_EX2_EP,1,47,2021-09-15T14:42:10-07:00,8.3996949195862,4,Pure_Forward.csv,READVersionB.csv,"Read Pure F B","Read Pure F B",TOOL,SHED,BUFFER4,Buffer,178,99,STUDY,8,8,,Study/JOL,BUFFER2,8002,,,-1,-1,,,,1
w10082420,rqn6slwf97,Nick_Dissertation_EX2_EP,1,48,2021-09-15T14:42:18-07:00,8.5384781360626,4,Pure_Forward.csv,READVersionB.csv,"Read Pure F B","Read Pure F B",SPRING,MARCH,BUFFER4,Buffer,179,101,STUDY,8,8,,Study/JOL,BUFFER2,8003,,,-1,-1,,,,1
w10082420,rqn6slwf97,Nick_Dissertation_EX2_EP,1,49,2021-09-15T14:42:27-07:00,8.4655158519745,4,Pure_Forward.csv,READVersionB.csv,"Read Pure F B","Read Pure F B",DAYS,WEEKS,BUFFER4,Buffer,176,98,STUDY,8,8,,Study/JOL,BUFFER2,8003,,,-1,-1,,,,1
w10082420,rqn6slwf97,Nick_Dissertation_EX2_EP,1,50,2021-09-15T14:42:35-07:00,8.406259059906,4,Pure_Forward.csv,READVersionB.csv,"Read Pure F B","Read Pure F B",OCTOBER,SPOOKY,BUFFER4,Buffer,180,100,STUDY,8,8,,Study/JOL,BUFFER2,8002,,,-1,-1,,,,1
w10082420,rqn6slwf97,Nick_Dissertation_EX2_EP,1,51,2021-09-15T14:42:43-07:00,8.4008738994598,4,Pure_Forward.csv,READVersionB.csv,"Read Pure F B","Read Pure F B",MONTH,YEAR,BUFFER4,Buffer,177,97,STUDY,8,8,,Study/JOL,BUFFER2,8003,,,-1,-1,,,,1
w10082420,rqn6slwf97,Nick_Dissertation_EX2_EP,1,52,2021-09-15T14:42:55-07:00,11.483085155487,4,Pure_Forward.csv,READVersionB.csv,"Read Pure F B","Read Pure F B",,,,,,0,Instruct,User,-,"You have completed this section. Please press Enter.",Filler_Instruction,Instruct2,10962,,,-1,-1,,,,1
w10082420,rqn6slwf97,Nick_Dissertation_EX2_EP,1,53,2021-09-15T14:44:55-07:00,120.54138803482,4,Pure_Forward.csv,READVersionB.csv,"Read Pure F B","Read Pure F B",,,,,,0,FreeRecall,120,120,"Please list the 50 US states in alphabetical order. The task will automatically advance to the next screen after two minutes.",,Filler1,120007,"Alabama Alaska Arizona Arkansas California Colorado Connecticut Delaware Florida Georgia Hawaii Idaho Illinois Indiana Iowa Kansas Kentucky Louisiana Maine Maryland Massachusetts Michigan Minnesota Mississippi Missouri Montana Nebraska Nevada New Hampshire New Jersey New Mexico New York North Carolina North Dakota Ohio Oklahoma Oregon Pennsylvania Rhode Island South Carolina South Dakota Tennessee Texas Utah Vermont Virginia Washington West Virginia Wisconsin Wyoming",0,-1,-1,0,0,,0.918
w10082420,rqn6slwf97,Nick_Dissertation_EX2_EP,1,54,2021-09-15T14:45:06-07:00,10.893360853195,4,Pure_Forward.csv,READVersionB.csv,"Read Pure F B","Read Pure F B",,,,,,0,Instruct,-,10,"You will now be presented with the first word from each of the previously studied item pairs. Please type the missing word. If you do not know the word, you may guess or press Enter to skip forward to the next pair.",,Instruct3,10464,,,-1,-1,,,,1
w10082420,rqn6slwf97,Nick_Dissertation_EX2_EP,1,55,2021-09-15T14:45:13-07:00,7.0022010803223,4,Pure_Forward.csv,READVersionB.csv,"Read Pure F B","Read Pure F B",RACKET,BALL,Study2,F,108,63,Test,User,-,,Recall,Recall1,6554,ball,100,3398,4447,1,1,,1
w10082420,rqn6slwf97,Nick_Dissertation_EX2_EP,1,56,2021-09-15T14:45:31-07:00,18.1939868927,4,Pure_Forward.csv,READVersionB.csv,"Read Pure F B","Read Pure F B",BLAZE,FIRE,Study2,F,115,79,Test,User,-,,Recall,Recall1,17521,"fire ",100,15485,16529,1,1,,1
w10082420,rqn6slwf97,Nick_Dissertation_EX2_EP,1,57,2021-09-15T14:45:36-07:00,4.6806871891022,4,Pure_Forward.csv,READVersionB.csv,"Read Pure F B","Read Pure F B",SCALP,HEAD,Study2,F,165,65,Test,User,-,,Recall,Recall1,4244,"head ",100,2387,3306,1,1,,1
w10082420,rqn6slwf97,Nick_Dissertation_EX2_EP,1,58,2021-09-15T14:45:41-07:00,4.8796229362488,4,Pure_Forward.csv,READVersionB.csv,"Read Pure F B","Read Pure F B",DINE,EAT,Study2,F,171,85,Test,User,-,,Recall,Recall1,4461,"eat ",100,2880,3473,1,1,,1
w10082420,rqn6slwf97,Nick_Dissertation_EX2_EP,1,59,2021-09-15T14:45:45-07:00,4.14071393013,4,Pure_Forward.csv,READVersionB.csv,"Read Pure F B","Read Pure F B",AFFECTION,LOVE,Study2,F,175,91,Test,User,-,,Recall,Recall1,3700,"love ",100,1883,2778,1,1,,1
w10082420,rqn6slwf97,Nick_Dissertation_EX2_EP,1,60,2021-09-15T14:45:50-07:00,4.6393399238586,4,Pure_Forward.csv,READVersionB.csv,"Read Pure F B","Read Pure F B",GROWTH,HEIGHT,Study2,F,100,78,Test,User,-,,Recall,Recall1,4209,"height ",100,2034,3211,1,1,,1
w10082420,rqn6slwf97,Nick_Dissertation_EX2_EP,1,61,2021-09-15T14:45:54-07:00,4.0603251457214,4,Pure_Forward.csv,READVersionB.csv,"Read Pure F B","Read Pure F B",CHOP,CUT,Study2,F,167,59,Test,User,-,,Recall,Recall1,3659,"cut ",100,2169,2759,1,1,,1
w10082420,rqn6slwf97,Nick_Dissertation_EX2_EP,1,62,2021-09-15T14:46:00-07:00,6.1205530166626,4,Pure_Forward.csv,READVersionB.csv,"Read Pure F B","Read Pure F B",WASP,BUG,Study2,F,102,95,Test,User,-,,Recall,Recall1,5738,"bug ",100,2021,4928,1,1,,1
w10082420,rqn6slwf97,Nick_Dissertation_EX2_EP,1,63,2021-09-15T14:46:34-07:00,33.838657855988,4,Pure_Forward.csv,READVersionB.csv,"Read Pure F B","Read Pure F B",CLUE,GAME,Study2,F,157,93,Test,User,-,,Recall,Recall1,33253,"game ",100,31510,32414,1,1,,1
w10082420,rqn6slwf97,Nick_Dissertation_EX2_EP,1,64,2021-09-15T14:47:09-07:00,35.271419048309,4,Pure_Forward.csv,READVersionB.csv,"Read Pure F B","Read Pure F B",DRIVER,CAR,Study2,F,166,72,Test,User,-,,Recall,Recall1,34878,"car ",100,33331,33944,1,1,,1
w10082420,rqn6slwf97,Nick_Dissertation_EX2_EP,1,65,2021-09-15T14:47:13-07:00,4.1186790466309,4,Pure_Forward.csv,READVersionB.csv,"Read Pure F B","Read Pure F B",DIVISION,MATH,Study2,F,103,74,Test,User,-,,Recall,Recall1,3710,"math ",100,1932,2805,1,1,,1
w10082420,rqn6slwf97,Nick_Dissertation_EX2_EP,1,66,2021-09-15T14:47:19-07:00,5.760274887085,4,Pure_Forward.csv,READVersionB.csv,"Read Pure F B","Read Pure F B",DOCUMENT,PAPER,Study2,F,169,84,Test,User,-,,Recall,Recall1,5366,"paper ",100,2795,4415,1,1,,1
w10082420,rqn6slwf97,Nick_Dissertation_EX2_EP,1,67,2021-09-15T14:47:29-07:00,10.535760164261,4,Pure_Forward.csv,READVersionB.csv,"Read Pure F B","Read Pure F B",CHILL,COLD,Study2,F,174,92,Test,User,-,,Recall,Recall1,9984,"cold ",100,8051,9063,1,1,,1
w10082420,rqn6slwf97,Nick_Dissertation_EX2_EP,1,68,2021-09-15T14:47:36-07:00,6.0452408790588,4,Pure_Forward.csv,READVersionB.csv,"Read Pure F B","Read Pure F B",TUNA,FISH,Study1,F,25,23,Test,User,-,,Recall,Recall1,5626,"fish ",100,3690,4560,1,1,,1
w10082420,rqn6slwf97,Nick_Dissertation_EX2_EP,1,69,2021-09-15T14:47:50-07:00,14.877427101135,4,Pure_Forward.csv,READVersionB.csv,"Read Pure F B","Read Pure F B",CAVE,DARK,Study2,F,98,73,Test,User,-,,Recall,Recall1,14467,"dark ",100,12676,13554,1,1,,1
w10082420,rqn6slwf97,Nick_Dissertation_EX2_EP,1,70,2021-09-15T14:47:54-07:00,3.896537065506,4,Pure_Forward.csv,READVersionB.csv,"Read Pure F B","Read Pure F B",SHOELACE,TIE,Study2,F,159,67,Test,User,-,,Recall,Recall1,3475,"tie ",100,1834,2518,1,1,,1
w10082420,rqn6slwf97,Nick_Dissertation_EX2_EP,1,71,2021-09-15T14:47:59-07:00,5.0207509994507,4,Pure_Forward.csv,READVersionB.csv,"Read Pure F B","Read Pure F B",EXTENSION,LONG,Study2,F,156,69,Test,User,-,,Recall,Recall1,4617,"long ",100,2847,3764,1,1,,1
w10082420,rqn6slwf97,Nick_Dissertation_EX2_EP,1,72,2021-09-15T14:48:08-07:00,9.1188499927521,4,Pure_Forward.csv,READVersionB.csv,"Read Pure F B","Read Pure F B",LATCH,KEY,Study2,F,106,57,Test,User,-,,Recall,Recall1,8697,"key ",100,7062,7795,1,1,,1
w10082420,rqn6slwf97,Nick_Dissertation_EX2_EP,1,73,2021-09-15T14:48:27-07:00,18.921022891998,4,Pure_Forward.csv,READVersionB.csv,"Read Pure F B","Read Pure F B",WORD,SENTENCE,Study2,F,101,81,Test,User,-,,Recall,Recall1,17887,"letter ",42.857142857143,15643,17039,0,0,,1
w10082420,rqn6slwf97,Nick_Dissertation_EX2_EP,1,74,2021-09-15T14:48:34-07:00,6.6149840354919,4,Pure_Forward.csv,READVersionB.csv,"Read Pure F B","Read Pure F B",FEUD,FIGHT,Study2,F,173,62,Test,User,-,,Recall,Recall1,6188,"fight ",100,4305,5243,1,1,,1
w10082420,rqn6slwf97,Nick_Dissertation_EX2_EP,1,75,2021-09-15T14:48:38-07:00,4.4899139404297,4,Pure_Forward.csv,READVersionB.csv,"Read Pure F B","Read Pure F B",ATTORNEY,LAW,Study2,F,104,80,Test,User,-,,Recall,Recall1,4067,"law ",100,2475,3218,1,1,,1
w10082420,rqn6slwf97,Nick_Dissertation_EX2_EP,1,76,2021-09-15T14:48:45-07:00,6.6293771266937,4,Pure_Forward.csv,READVersionB.csv,"Read Pure F B","Read Pure F B",LITTER,TRASH,Study2,F,163,96,Test,User,-,,Recall,Recall1,6212,"trash ",100,4355,5333,1,1,,1
w10082420,rqn6slwf97,Nick_Dissertation_EX2_EP,1,77,2021-09-15T14:48:50-07:00,5.1116008758545,4,Pure_Forward.csv,READVersionB.csv,"Read Pure F B","Read Pure F B",CHORE,WORK,Study2,F,109,60,Test,User,-,,Recall,Recall1,4698,"work ",100,2724,3719,1,1,,1
w10082420,rqn6slwf97,Nick_Dissertation_EX2_EP,1,78,2021-09-15T14:48:54-07:00,3.7194030284882,4,Pure_Forward.csv,READVersionB.csv,"Read Pure F B","Read Pure F B",ADJOURN,END,Study2,F,161,71,Test,User,-,,Recall,Recall1,3278,"end ",100,1721,2353,1,1,,1
w10082420,rqn6slwf97,Nick_Dissertation_EX2_EP,1,79,2021-09-15T14:48:58-07:00,4.2886209487915,4,Pure_Forward.csv,READVersionB.csv,"Read Pure F B","Read Pure F B",DROWSY,SLEEP,Study2,F,111,76,Test,User,-,,Recall,Recall1,3879,"sleep ",100,1680,2966,1,1,,1
w10082420,rqn6slwf97,Nick_Dissertation_EX2_EP,1,80,2021-09-15T14:49:03-07:00,4.880558013916,4,Pure_Forward.csv,READVersionB.csv,"Read Pure F B","Read Pure F B",MULE,DONKEY,Study2,F,168,86,Test,User,-,,Recall,Recall1,4444,"donkey ",100,2279,3569,1,1,,1
w10082420,rqn6slwf97,Nick_Dissertation_EX2_EP,1,81,2021-09-15T14:49:07-07:00,3.8403401374817,4,Pure_Forward.csv,READVersionB.csv,"Read Pure F B","Read Pure F B",CHOP,CUT,Study2,F,167,59,Test,User,-,,Recall,Recall1,3394,"cut ",100,1743,2355,1,1,,1
w10082420,rqn6slwf97,Nick_Dissertation_EX2_EP,1,82,2021-09-15T14:49:12-07:00,5.4289879798889,4,Pure_Forward.csv,READVersionB.csv,"Read Pure F B","Read Pure F B",SHEARS,SCISSORS,Study2,F,172,68,Test,User,-,,Recall,Recall1,5022,"scissors ",100,1910,3277,1,1,,1
w10082420,rqn6slwf97,Nick_Dissertation_EX2_EP,1,83,2021-09-15T14:49:17-07:00,4.1812238693237,4,Pure_Forward.csv,READVersionB.csv,"Read Pure F B","Read Pure F B",FANTASTIC,GREAT,Study2,F,105,94,Test,User,-,,Recall,Recall1,3762,"great ",100,1766,2814,1,1,,1
w10082420,rqn6slwf97,Nick_Dissertation_EX2_EP,1,84,2021-09-15T14:49:44-07:00,27.48993897438,4,Pure_Forward.csv,READVersionB.csv,"Read Pure F B","Read Pure F B",ENOUGH,FULL,Study2,F,96,70,Test,User,-,,Recall,Recall1,26957,"full ",100,25106,26024,1,1,,1
w10082420,rqn6slwf97,Nick_Dissertation_EX2_EP,1,85,2021-09-15T14:49:50-07:00,5.6245381832123,4,Pure_Forward.csv,READVersionB.csv,"Read Pure F B","Read Pure F B",DETECTIVE,MYSTERY,Study2,F,160,61,Test,User,-,,Recall,Recall1,5163,"mystery ",100,2669,4290,1,1,,1
w10082420,rqn6slwf97,Nick_Dissertation_EX2_EP,1,86,2021-09-15T14:49:55-07:00,4.9008119106293,4,Pure_Forward.csv,READVersionB.csv,"Read Pure F B","Read Pure F B",FURRY,DOG,Study2,F,162,77,Test,User,-,,Recall,Recall1,4488,"dog ",100,2873,3539,1,1,,1
w10082420,rqn6slwf97,Nick_Dissertation_EX2_EP,1,87,2021-09-15T14:50:00-07:00,5.2792201042175,4,Pure_Forward.csv,READVersionB.csv,"Read Pure F B","Read Pure F B",ATTIRE,CLOTHES,Study2,F,113,66,Test,User,-,,Recall,Recall1,4823,"clothes ",100,2225,3870,1,1,,1
w10082420,rqn6slwf97,Nick_Dissertation_EX2_EP,1,88,2021-09-15T14:50:07-07:00,7.2808659076691,4,Pure_Forward.csv,READVersionB.csv,"Read Pure F B","Read Pure F B",CHILI,HOT,Study2,F,107,90,Test,User,-,,Recall,Recall1,6878,"hot ",100,5431,5994,1,1,,1
w10082420,rqn6slwf97,Nick_Dissertation_EX2_EP,1,89,2021-09-15T14:50:21-07:00,13.514575004578,4,Pure_Forward.csv,READVersionB.csv,"Read Pure F B","Read Pure F B",SEIZE,TAKE,Study2,F,99,75,Test,User,-,,Recall,Recall1,13161,"end ",28.571428571429,11678,12299,0,0,,1
w10082420,rqn6slwf97,Nick_Dissertation_EX2_EP,1,90,2021-09-15T14:50:26-07:00,5.2206590175629,4,Pure_Forward.csv,READVersionB.csv,"Read Pure F B","Read Pure F B",STENCH,SMELL,Study2,F,112,87,Test,User,-,,Recall,Recall1,4825,"smell ",100,2786,3939,1,1,,1
w10082420,rqn6slwf97,Nick_Dissertation_EX2_EP,1,91,2021-09-15T14:50:30-07:00,4.2388079166412,4,Pure_Forward.csv,READVersionB.csv,"Read Pure F B","Read Pure F B",CACTUS,PLANT,Study2,F,158,89,Test,User,-,,Recall,Recall1,3792,"plant ",100,1799,2870,1,1,,1
w10082420,rqn6slwf97,Nick_Dissertation_EX2_EP,1,92,2021-09-15T14:50:37-07:00,7.1007969379425,4,Pure_Forward.csv,READVersionB.csv,"Read Pure F B","Read Pure F B",FAMINE,HUNGER,Study2,F,110,64,Test,User,-,,Recall,Recall1,6649,"hunger ",100,4701,5781,1,1,,1
w10082420,rqn6slwf97,Nick_Dissertation_EX2_EP,1,93,2021-09-15T14:50:42-07:00,4.7399771213531,4,Pure_Forward.csv,READVersionB.csv,"Read Pure F B","Read Pure F B",SIP,DRINK,Study2,F,97,88,Test,User,-,,Recall,Recall1,4342,"drink ",100,1818,2882,1,1,,1
w10082420,rqn6slwf97,Nick_Dissertation_EX2_EP,1,94,2021-09-15T14:50:46-07:00,4.1998870372772,4,Pure_Forward.csv,READVersionB.csv,"Read Pure F B","Read Pure F B",PILOT,PLANE,Study2,F,114,82,Test,User,-,,Recall,Recall1,3752,"plane ",100,1819,2904,1,1,,1
w10082420,rqn6slwf97,Nick_Dissertation_EX2_EP,1,95,2021-09-15T14:51:12-07:00,25.412969827652,4,Pure_Forward.csv,READVersionB.csv,"Read Pure F B","Read Pure F B",,,,,,0,Instruct,-,10,"You will now be presented with a new set of word pairs. Please study each pair. Remember that your memory will be tested! Each pair will be displayed on the computer screen and will automatically advance to the next pair. Press ENTER when you are ready to begin.",Initial_Instruct,Instruct4,25025,,,-1,-1,,,,1
w10082420,rqn6slwf97,Nick_Dissertation_EX2_EP,1,96,2021-09-15T14:51:20-07:00,8.5461490154266,4,Pure_Forward.csv,READVersionB.csv,"Read Pure F B","Read Pure F B",BASEBALL,CATCHER,BUFFER1,Buffer,2,3,STUDY,8,8,,Study/JOL,BUFFER3,8011,,,-1,-1,,,,1
w10082420,rqn6slwf97,Nick_Dissertation_EX2_EP,1,97,2021-09-15T14:51:29-07:00,8.4248940944672,4,Pure_Forward.csv,READVersionB.csv,"Read Pure F B","Read Pure F B",TREES,GREEN,BUFFER1,Buffer,1,5,STUDY,8,8,,Study/JOL,BUFFER3,8002,,,-1,-1,,,,1
w10082420,rqn6slwf97,Nick_Dissertation_EX2_EP,1,98,2021-09-15T14:51:37-07:00,8.6447861194611,4,Pure_Forward.csv,READVersionB.csv,"Read Pure F B","Read Pure F B",PEANUT,BUTTER,BUFFER1,Buffer,3,6,STUDY,8,8,,Study/JOL,BUFFER3,8002,,,-1,-1,,,,1
w10082420,rqn6slwf97,Nick_Dissertation_EX2_EP,1,99,2021-09-15T14:51:46-07:00,8.3859918117523,4,Pure_Forward.csv,READVersionB.csv,"Read Pure F B","Read Pure F B",SCARE,HIDE,BUFFER1,Buffer,4,4,STUDY,8,8,,Study/JOL,BUFFER3,8002,,,-1,-1,,,,1
w10082420,rqn6slwf97,Nick_Dissertation_EX2_EP,1,100,2021-09-15T14:51:54-07:00,8.3395090103149,4,Pure_Forward.csv,READVersionB.csv,"Read Pure F B","Read Pure F B",SPACE,JAM,BUFFER1,Buffer,5,2,STUDY,8,8,,Study/JOL,BUFFER3,8001,,,-1,-1,,,,1
w10082420,rqn6slwf97,Nick_Dissertation_EX2_EP,1,101,2021-09-15T14:52:02-07:00,8.4200580120087,4,Pure_Forward.csv,READVersionB.csv,"Read Pure F B","Read Pure F B",SARDINE,FISH,Study1,F,80,27,STUDY,8,8,,Study/JOL,"Study Phase2",8002,,,-1,-1,,,,1
w10082420,rqn6slwf97,Nick_Dissertation_EX2_EP,1,102,2021-09-15T14:52:11-07:00,8.4189510345459,4,Pure_Forward.csv,READVersionB.csv,"Read Pure F B","Read Pure F B",BRIDGE,WATER,Study1,F,18,16,STUDY,8,8,,Study/JOL,"Study Phase2",8002,,,-1,-1,,,,1
w10082420,rqn6slwf97,Nick_Dissertation_EX2_EP,1,103,2021-09-15T14:52:19-07:00,8.4207320213318,4,Pure_Forward.csv,READVersionB.csv,"Read Pure F B","Read Pure F B",COFFIN,DEAD,Study1,F,78,11,STUDY,8,8,,Study/JOL,"Study Phase2",8003,,,-1,-1,,,,1
w10082420,rqn6slwf97,Nick_Dissertation_EX2_EP,1,104,2021-09-15T14:52:28-07:00,8.4001400470734,4,Pure_Forward.csv,READVersionB.csv,"Read Pure F B","Read Pure F B",ROOT,PLANT,Study1,F,13,17,STUDY,8,8,,Study/JOL,"Study Phase2",8002,,,-1,-1,,,,1
w10082420,rqn6slwf97,Nick_Dissertation_EX2_EP,1,105,2021-09-15T14:52:36-07:00,8.3996880054474,4,Pure_Forward.csv,READVersionB.csv,"Read Pure F B","Read Pure F B",GEOLOGY,ROCK,Study1,F,19,24,STUDY,8,8,,Study/JOL,"Study Phase2",8002,,,-1,-1,,,,1
w10082420,rqn6slwf97,Nick_Dissertation_EX2_EP,1,106,2021-09-15T14:52:44-07:00,8.4002058506012,4,Pure_Forward.csv,READVersionB.csv,"Read Pure F B","Read Pure F B",CREDIT,CARD,Study1,F,23,18,STUDY,8,8,,Study/JOL,"Study Phase2",8002,,,-1,-1,,,,1
w10082420,rqn6slwf97,Nick_Dissertation_EX2_EP,1,107,2021-09-15T14:52:53-07:00,8.3998801708221,4,Pure_Forward.csv,READVersionB.csv,"Read Pure F B","Read Pure F B",BREAKABLE,GLASS,Study1,F,77,7,STUDY,8,8,,Study/JOL,"Study Phase2",8003,,,-1,-1,,,,1
w10082420,rqn6slwf97,Nick_Dissertation_EX2_EP,1,108,2021-09-15T14:53:01-07:00,8.4201998710632,4,Pure_Forward.csv,READVersionB.csv,"Read Pure F B","Read Pure F B",TRUTHFUL,HONEST,Study1,F,83,39,STUDY,8,8,,Study/JOL,"Study Phase2",8006,,,-1,-1,,,,1
w10082420,rqn6slwf97,Nick_Dissertation_EX2_EP,1,109,2021-09-15T14:53:10-07:00,8.4004919528961,4,Pure_Forward.csv,READVersionB.csv,"Read Pure F B","Read Pure F B",AIRCRAFT,PLANE,Study1,F,79,15,STUDY,8,8,,Study/JOL,"Study Phase2",8002,,,-1,-1,,,,1
w10082420,rqn6slwf97,Nick_Dissertation_EX2_EP,1,110,2021-09-15T14:53:18-07:00,8.419741153717,4,Pure_Forward.csv,READVersionB.csv,"Read Pure F B","Read Pure F B",EDITOR,NEWS,Study1,F,10,41,STUDY,8,8,,Study/JOL,"Study Phase2",8002,,,-1,-1,,,,1
w10082420,rqn6slwf97,Nick_Dissertation_EX2_EP,1,111,2021-09-15T14:53:26-07:00,8.3992688655853,4,Pure_Forward.csv,READVersionB.csv,"Read Pure F B","Read Pure F B",PENGUIN,BIRD,Study1,F,69,22,STUDY,8,8,,Study/JOL,"Study Phase2",8003,,,-1,-1,,,,1
w10082420,rqn6slwf97,Nick_Dissertation_EX2_EP,1,112,2021-09-15T14:53:35-07:00,8.4001049995422,4,Pure_Forward.csv,READVersionB.csv,"Read Pure F B","Read Pure F B",BITTER,COLD,Study1,F,12,13,STUDY,8,8,,Study/JOL,"Study Phase2",8002,,,-1,-1,,,,1
w10082420,rqn6slwf97,Nick_Dissertation_EX2_EP,1,113,2021-09-15T14:53:43-07:00,8.5756261348724,4,Pure_Forward.csv,READVersionB.csv,"Read Pure F B","Read Pure F B",NAP,SLEEP,Study1,F,84,43,STUDY,8,8,,Study/JOL,"Study Phase2",8002,,,-1,-1,,,,1
w10082420,rqn6slwf97,Nick_Dissertation_EX2_EP,1,114,2021-09-15T14:53:52-07:00,8.4155938625336,4,Pure_Forward.csv,READVersionB.csv,"Read Pure F B","Read Pure F B",DELINQUENT,BAD,Study1,F,6,25,STUDY,8,8,,Study/JOL,"Study Phase2",8003,,,-1,-1,,,,1
w10082420,rqn6slwf97,Nick_Dissertation_EX2_EP,1,115,2021-09-15T14:54:00-07:00,8.3997950553894,4,Pure_Forward.csv,READVersionB.csv,"Read Pure F B","Read Pure F B",VILLAIN,BAD,Study1,F,68,40,STUDY,8,8,,Study/JOL,"Study Phase2",8002,,,-1,-1,,,,1
w10082420,rqn6slwf97,Nick_Dissertation_EX2_EP,1,116,2021-09-15T14:54:09-07:00,8.3796091079712,4,Pure_Forward.csv,READVersionB.csv,"Read Pure F B","Read Pure F B",ACTRESS,STAR,Study1,F,70,31,STUDY,8,8,,Study/JOL,"Study Phase2",8001,,,-1,-1,,,,1
w10082420,rqn6slwf97,Nick_Dissertation_EX2_EP,1,117,2021-09-15T14:54:17-07:00,8.3994879722595,4,Pure_Forward.csv,READVersionB.csv,"Read Pure F B","Read Pure F B",THIMBLE,THREAD,Study1,F,71,35,STUDY,8,8,,Study/JOL,"Study Phase2",8003,,,-1,-1,,,,1
w10082420,rqn6slwf97,Nick_Dissertation_EX2_EP,1,118,2021-09-15T14:54:25-07:00,8.4205439090729,4,Pure_Forward.csv,READVersionB.csv,"Read Pure F B","Read Pure F B",FAVORITE,BEST,Study1,F,75,30,STUDY,8,8,,Study/JOL,"Study Phase2",8003,,,-1,-1,,,,1
w10082420,rqn6slwf97,Nick_Dissertation_EX2_EP,1,119,2021-09-15T14:54:34-07:00,8.3798539638519,4,Pure_Forward.csv,READVersionB.csv,"Read Pure F B","Read Pure F B",LEAGUE,BASEBALL,Study1,F,81,12,STUDY,8,8,,Study/JOL,"Study Phase2",8002,,,-1,-1,,,,1
w10082420,rqn6slwf97,Nick_Dissertation_EX2_EP,1,120,2021-09-15T14:54:42-07:00,8.4000730514526,4,Pure_Forward.csv,READVersionB.csv,"Read Pure F B","Read Pure F B",SWAN,BIRD,Study1,F,14,33,STUDY,8,8,,Study/JOL,"Study Phase2",8002,,,-1,-1,,,,1
w10082420,rqn6slwf97,Nick_Dissertation_EX2_EP,1,121,2021-09-15T14:54:51-07:00,8.4194920063019,4,Pure_Forward.csv,READVersionB.csv,"Read Pure F B","Read Pure F B",TUNA,FISH,Study1,F,25,23,STUDY,8,8,,Study/JOL,"Study Phase2",8003,,,-1,-1,,,,1
w10082420,rqn6slwf97,Nick_Dissertation_EX2_EP,1,122,2021-09-15T14:54:59-07:00,8.4208650588989,4,Pure_Forward.csv,READVersionB.csv,"Read Pure F B","Read Pure F B",CHISEL,HAMMER,Study1,F,9,26,STUDY,8,8,,Study/JOL,"Study Phase2",8005,,,-1,-1,,,,1
w10082420,rqn6slwf97,Nick_Dissertation_EX2_EP,1,123,2021-09-15T14:55:07-07:00,8.4401898384094,4,Pure_Forward.csv,READVersionB.csv,"Read Pure F B","Read Pure F B",DIGESTION,STOMACH,Study1,F,7,10,STUDY,8,8,,Study/JOL,"Study Phase2",8001,,,-1,-1,,,,1
w10082420,rqn6slwf97,Nick_Dissertation_EX2_EP,1,124,2021-09-15T14:55:16-07:00,8.4392931461334,4,Pure_Forward.csv,READVersionB.csv,"Read Pure F B","Read Pure F B",PAW,DOG,Study1,F,15,29,STUDY,8,8,,Study/JOL,"Study Phase2",8003,,,-1,-1,,,,1
w10082420,rqn6slwf97,Nick_Dissertation_EX2_EP,1,125,2021-09-15T14:55:24-07:00,8.4404320716858,4,Pure_Forward.csv,READVersionB.csv,"Read Pure F B","Read Pure F B",HYGIENE,CLEAN,Study1,F,17,45,STUDY,8,8,,Study/JOL,"Study Phase2",8002,,,-1,-1,,,,1
w10082420,rqn6slwf97,Nick_Dissertation_EX2_EP,1,126,2021-09-15T14:55:33-07:00,8.4397568702698,4,Pure_Forward.csv,READVersionB.csv,"Read Pure F B","Read Pure F B",BALLOON,POP,Study1,F,73,20,STUDY,8,8,,Study/JOL,"Study Phase2",8002,,,-1,-1,,,,1
w10082420,rqn6slwf97,Nick_Dissertation_EX2_EP,1,127,2021-09-15T14:55:41-07:00,8.3998749256134,4,Pure_Forward.csv,READVersionB.csv,"Read Pure F B","Read Pure F B",DISCUSSION,TALK,Study1,F,21,21,STUDY,8,8,,Study/JOL,"Study Phase2",8002,,,-1,-1,,,,1
w10082420,rqn6slwf97,Nick_Dissertation_EX2_EP,1,128,2021-09-15T14:55:50-07:00,8.4399712085724,4,Pure_Forward.csv,READVersionB.csv,"Read Pure F B","Read Pure F B",BRAWL,FIGHT,Study1,F,85,37,STUDY,8,8,,Study/JOL,"Study Phase2",8003,,,-1,-1,,,,1
w10082420,rqn6slwf97,Nick_Dissertation_EX2_EP,1,129,2021-09-15T14:55:58-07:00,8.4000988006592,4,Pure_Forward.csv,READVersionB.csv,"Read Pure F B","Read Pure F B",HERD,COW,Study1,F,22,32,STUDY,8,8,,Study/JOL,"Study Phase2",8003,,,-1,-1,,,,1
w10082420,rqn6slwf97,Nick_Dissertation_EX2_EP,1,130,2021-09-15T14:56:06-07:00,8.3999531269073,4,Pure_Forward.csv,READVersionB.csv,"Read Pure F B","Read Pure F B",FLIP,TURN,Study1,F,66,19,STUDY,8,8,,Study/JOL,"Study Phase2",8003,,,-1,-1,,,,1
w10082420,rqn6slwf97,Nick_Dissertation_EX2_EP,1,131,2021-09-15T14:56:15-07:00,8.3993330001831,4,Pure_Forward.csv,READVersionB.csv,"Read Pure F B","Read Pure F B",REVENGE,EVEN,Study1,F,72,8,STUDY,8,8,,Study/JOL,"Study Phase2",8003,,,-1,-1,,,,1
w10082420,rqn6slwf97,Nick_Dissertation_EX2_EP,1,132,2021-09-15T14:56:23-07:00,8.4458630084991,4,Pure_Forward.csv,READVersionB.csv,"Read Pure F B","Read Pure F B",HORNET,STING,Study1,F,11,38,STUDY,8,8,,Study/JOL,"Study Phase2",8002,,,-1,-1,,,,1
w10082420,rqn6slwf97,Nick_Dissertation_EX2_EP,1,133,2021-09-15T14:56:32-07:00,8.4147939682007,4,Pure_Forward.csv,READVersionB.csv,"Read Pure F B","Read Pure F B",STRAWBERRY,FRUIT,Study1,F,74,44,STUDY,8,8,,Study/JOL,"Study Phase2",8005,,,-1,-1,,,,1
w10082420,rqn6slwf97,Nick_Dissertation_EX2_EP,1,134,2021-09-15T14:56:40-07:00,8.4202740192413,4,Pure_Forward.csv,READVersionB.csv,"Read Pure F B","Read Pure F B",WAGE,MONEY,Study1,F,8,42,STUDY,8,8,,Study/JOL,"Study Phase2",8002,,,-1,-1,,,,1
w10082420,rqn6slwf97,Nick_Dissertation_EX2_EP,1,135,2021-09-15T14:56:49-07:00,8.4393470287323,4,Pure_Forward.csv,READVersionB.csv,"Read Pure F B","Read Pure F B",REVOLUTION,WAR,Study1,F,20,34,STUDY,8,8,,Study/JOL,"Study Phase2",8003,,,-1,-1,,,,1
w10082420,rqn6slwf97,Nick_Dissertation_EX2_EP,1,136,2021-09-15T14:56:57-07:00,8.3610279560089,4,Pure_Forward.csv,READVersionB.csv,"Read Pure F B","Read Pure F B",BANKER,MONEY,Study1,F,82,46,STUDY,8,8,,Study/JOL,"Study Phase2",8001,,,-1,-1,,,,1
w10082420,rqn6slwf97,Nick_Dissertation_EX2_EP,1,137,2021-09-15T14:57:05-07:00,8.3993189334869,4,Pure_Forward.csv,READVersionB.csv,"Read Pure F B","Read Pure F B",WINDSHIELD,CAR,Study1,F,67,36,STUDY,8,8,,Study/JOL,"Study Phase2",8005,,,-1,-1,,,,1
w10082420,rqn6slwf97,Nick_Dissertation_EX2_EP,1,138,2021-09-15T14:57:14-07:00,8.4406349658966,4,Pure_Forward.csv,READVersionB.csv,"Read Pure F B","Read Pure F B",PANTHER,CAT,Study1,F,76,14,STUDY,8,8,,Study/JOL,"Study Phase2",8002,,,-1,-1,,,,1
w10082420,rqn6slwf97,Nick_Dissertation_EX2_EP,1,139,2021-09-15T14:57:22-07:00,8.4390261173248,4,Pure_Forward.csv,READVersionB.csv,"Read Pure F B","Read Pure F B",WAY,OUT,Study1,F,16,9,STUDY,8,8,,Study/JOL,"Study Phase2",8002,,,-1,-1,,,,1
w10082420,rqn6slwf97,Nick_Dissertation_EX2_EP,1,140,2021-09-15T14:57:31-07:00,8.4202530384064,4,Pure_Forward.csv,READVersionB.csv,"Read Pure F B","Read Pure F B",ORCHID,FLOWER,Study1,F,24,28,STUDY,8,8,,Study/JOL,"Study Phase2",8002,,,-1,-1,,,,1
w10082420,rqn6slwf97,Nick_Dissertation_EX2_EP,1,141,2021-09-15T14:57:39-07:00,8.3998849391937,4,Pure_Forward.csv,READVersionB.csv,"Read Pure F B","Read Pure F B",THING,STUFF,BUFFER2,Buffer,90,50,STUDY,8,8,,Study/JOL,BUFFER4,8002,,,-1,-1,,,,1
w10082420,rqn6slwf97,Nick_Dissertation_EX2_EP,1,142,2021-09-15T14:57:48-07:00,8.5208060741425,4,Pure_Forward.csv,READVersionB.csv,"Read Pure F B","Read Pure F B",MALT,CHOCOLATE,BUFFER2,Buffer,88,47,STUDY,8,8,,Study/JOL,BUFFER4,8003,,,-1,-1,,,,1
w10082420,rqn6slwf97,Nick_Dissertation_EX2_EP,1,143,2021-09-15T14:57:56-07:00,8.6340978145599,4,Pure_Forward.csv,READVersionB.csv,"Read Pure F B","Read Pure F B",MOON,SPACE,BUFFER2,Buffer,89,51,STUDY,8,8,,Study/JOL,BUFFER4,8003,,,-1,-1,,,,1
w10082420,rqn6slwf97,Nick_Dissertation_EX2_EP,1,144,2021-09-15T14:58:05-07:00,8.3902661800385,4,Pure_Forward.csv,READVersionB.csv,"Read Pure F B","Read Pure F B",SHERRIF,POLICE,BUFFER2,Buffer,87,49,STUDY,8,8,,Study/JOL,BUFFER4,8006,,,-1,-1,,,,1
w10082420,rqn6slwf97,Nick_Dissertation_EX2_EP,1,145,2021-09-15T14:58:13-07:00,8.4002199172974,4,Pure_Forward.csv,READVersionB.csv,"Read Pure F B","Read Pure F B",GEESE,GOOSE,BUFFER2,Buffer,86,48,STUDY,8,8,,Study/JOL,BUFFER4,8002,,,-1,-1,,,,1
w10082420,rqn6slwf97,Nick_Dissertation_EX2_EP,1,146,2021-09-15T14:58:15-07:00,2.0988900661469,4,Pure_Forward.csv,READVersionB.csv,"Read Pure F B","Read Pure F B",,,,,,0,Instruct,User,-,"You have completed this section. Please press Enter.",Filler_Instruction,Instruct5,1704,,,-1,-1,,,,1
w10082420,rqn6slwf97,Nick_Dissertation_EX2_EP,1,147,2021-09-15T15:00:16-07:00,120.49773287773,4,Pure_Forward.csv,READVersionB.csv,"Read Pure F B","Read Pure F B",,,,,,0,FreeRecall,120,120,"Please list the 50 US states in reverse alphabetical order (z - a). The task will automatically advance to the next screen after two minutes.",,Filler2,120008,"Wyoming 99.3% Wisconsin 93.5% West Virginia 92.8% Washington 91.3% Virginia 91.3% Vermont 90.6% Utah 89.9% Texas 88.4% Tennessee 88.4% South Dakota 86.2% South Carolina 85.5% Rhode Island 84.1% Pennsylvania 84.1% Oregon 82.6% Oklahoma 80.4% Ohio 79.7% North Dakota 76.1% North Carolina 75.4% New York 73.9% New Mexico 73.2% New Jersey 73.2% New Hampshire 73.2% Nevada 71.7% Missouri 71% Mississippi 71% Montana 71% Minnesota 70.3% Michigan 69.6% Maine 69.6% Massachusetts 68.8% Maryland 68.8% Kentucky 68.8% Kansas 68.8% Hawaii 68.8% Nebraska 68.1% Louisiana 68.1% Georgia 68.1% Illinois 68.1% Indiana Iowa Idaho Florida Delaware Alabama Alaska Colorado Connecticut Arkansas California Arizona ",0,100033,100033,0,0,,0.857
w10082420,rqn6slwf97,Nick_Dissertation_EX2_EP,1,148,2021-09-15T15:00:36-07:00,20.7679271698,4,Pure_Forward.csv,READVersionB.csv,"Read Pure F B","Read Pure F B",,,,,,0,Instruct,-,10,"You will now be presented with the first word from each of the previously studied item pairs. Please type the missing word. If you do not know the word, you may guess or press Enter to skip forward to the next pair.",,Instruct6,20316,,,-1,-1,,,,0.914
w10082420,rqn6slwf97,Nick_Dissertation_EX2_EP,1,149,2021-09-15T15:00:45-07:00,8.9027278423309,4,Pure_Forward.csv,READVersionB.csv,"Read Pure F B","Read Pure F B",REVOLUTION,WAR,Study1,F,20,34,Test,User,-,,Recall,Recall2,8461,"war ",100,6939,7523,1,1,,1
w10082420,rqn6slwf97,Nick_Dissertation_EX2_EP,1,150,2021-09-15T15:01:00-07:00,14.518243074417,4,Pure_Forward.csv,READVersionB.csv,"Read Pure F B","Read Pure F B",SWAN,BIRD,Study1,F,14,33,Test,User,-,,Recall,Recall2,14077,"bird ",100,2452,13164,1,1,,1
w10082420,rqn6slwf97,Nick_Dissertation_EX2_EP,1,151,2021-09-15T15:01:10-07:00,10.41929101944,4,Pure_Forward.csv,READVersionB.csv,"Read Pure F B","Read Pure F B",BREAKABLE,GLASS,Study1,F,77,7,Test,User,-,,Recall,Recall2,9989,"glass ",100,7548,8891,1,1,,1
w10082420,rqn6slwf97,Nick_Dissertation_EX2_EP,1,152,2021-09-15T15:01:14-07:00,4.3002438545227,4,Pure_Forward.csv,READVersionB.csv,"Read Pure F B","Read Pure F B",FLIP,TURN,Study1,F,66,19,Test,User,-,,Recall,Recall2,3906,"turn ",100,2022,2907,1,1,,1
w10082420,rqn6slwf97,Nick_Dissertation_EX2_EP,1,153,2021-09-15T15:01:19-07:00,4.5000350475311,4,Pure_Forward.csv,READVersionB.csv,"Read Pure F B","Read Pure F B",REVENGE,EVEN,Study1,F,72,8,Test,User,-,,Recall,Recall2,4093,"even ",100,2236,3151,1,1,,1
w10082420,rqn6slwf97,Nick_Dissertation_EX2_EP,1,154,2021-09-15T15:01:32-07:00,12.700703144073,4,Pure_Forward.csv,READVersionB.csv,"Read Pure F B","Read Pure F B",BITTER,COLD,Study1,F,12,13,Test,User,-,,Recall,Recall2,12304,"cold ",100,9840,11184,1,1,,1
w10082420,rqn6slwf97,Nick_Dissertation_EX2_EP,1,155,2021-09-15T15:01:36-07:00,4.018914937973,4,Pure_Forward.csv,READVersionB.csv,"Read Pure F B","Read Pure F B",WAY,OUT,Study1,F,16,9,Test,User,-,,Recall,Recall2,3608,"out ",100,2008,2656,1,1,,1
w10082420,rqn6slwf97,Nick_Dissertation_EX2_EP,1,156,2021-09-15T15:01:40-07:00,3.9807939529419,4,Pure_Forward.csv,READVersionB.csv,"Read Pure F B","Read Pure F B",ORCHID,FLOWER,Study1,F,24,28,Test,User,-,,Recall,Recall2,3597,"bird ",20,1808,2612,0,0,,1
w10082420,rqn6slwf97,Nick_Dissertation_EX2_EP,1,157,2021-09-15T15:01:46-07:00,6.2792448997498,4,Pure_Forward.csv,READVersionB.csv,"Read Pure F B","Read Pure F B",BRIDGE,WATER,Study1,F,18,16,Test,User,-,,Recall,Recall2,5869,"water ",100,3957,4880,1,1,,1
w10082420,rqn6slwf97,Nick_Dissertation_EX2_EP,1,158,2021-09-15T15:02:04-07:00,18.33848118782,4,Pure_Forward.csv,READVersionB.csv,"Read Pure F B","Read Pure F B",AIRCRAFT,PLANE,Study1,F,79,15,Test,User,-,,Recall,Recall2,17872,"plane ",100,2188,3367,1,1,,1
w10082420,rqn6slwf97,Nick_Dissertation_EX2_EP,1,159,2021-09-15T15:02:12-07:00,7.4638719558716,4,Pure_Forward.csv,READVersionB.csv,"Read Pure F B","Read Pure F B",EDITOR,NEWS,Study1,F,10,41,Test,User,-,,Recall,Recall2,7071,"news ",100,1766,4097,1,1,,1
w10082420,rqn6slwf97,Nick_Dissertation_EX2_EP,1,160,2021-09-15T15:02:16-07:00,4.1583099365234,4,Pure_Forward.csv,READVersionB.csv,"Read Pure F B","Read Pure F B",DISCUSSION,TALK,Study1,F,21,21,Test,User,-,,Recall,Recall2,3768,"talk ",100,1847,2829,1,1,,1
w10082420,rqn6slwf97,Nick_Dissertation_EX2_EP,1,161,2021-09-15T15:02:25-07:00,9.374575138092,4,Pure_Forward.csv,READVersionB.csv,"Read Pure F B","Read Pure F B",CHISEL,HAMMER,Study1,F,9,26,Test,User,-,,Recall,Recall2,8770,"hammer ",100,6551,7889,1,1,,1
w10082420,rqn6slwf97,Nick_Dissertation_EX2_EP,1,162,2021-09-15T15:02:39-07:00,14.194970846176,4,Pure_Forward.csv,READVersionB.csv,"Read Pure F B","Read Pure F B",THIMBLE,THREAD,Study1,F,71,35,Test,User,-,,Recall,Recall2,13749,"thread ",100,11613,12768,1,1,,1
w10082420,rqn6slwf97,Nick_Dissertation_EX2_EP,1,163,2021-09-15T15:02:44-07:00,4.5006380081177,4,Pure_Forward.csv,READVersionB.csv,"Read Pure F B","Read Pure F B",ROOT,PLANT,Study1,F,13,17,Test,User,-,,Recall,Recall2,4050,"plant ",100,1974,3047,1,1,,1
w10082420,rqn6slwf97,Nick_Dissertation_EX2_EP,1,164,2021-09-15T15:02:50-07:00,5.9394280910492,4,Pure_Forward.csv,READVersionB.csv,"Read Pure F B","Read Pure F B",WINDSHIELD,CAR,Study1,F,67,36,Test,User,-,,Recall,Recall2,5565,"car ",100,3938,4533,1,1,,1
w10082420,rqn6slwf97,Nick_Dissertation_EX2_EP,1,165,2021-09-15T15:02:55-07:00,4.7596130371094,4,Pure_Forward.csv,READVersionB.csv,"Read Pure F B","Read Pure F B",DIGESTION,STOMACH,Study1,F,7,10,Test,User,-,,Recall,Recall2,4311,"stomach ",100,1652,3347,1,1,,1
w10082420,rqn6slwf97,Nick_Dissertation_EX2_EP,1,166,2021-09-15T15:02:59-07:00,4.2608308792114,4,Pure_Forward.csv,READVersionB.csv,"Read Pure F B","Read Pure F B",WAGE,MONEY,Study1,F,8,42,Test,User,-,,Recall,Recall2,3829,"money ",100,1679,2717,1,1,,1
w10082420,rqn6slwf97,Nick_Dissertation_EX2_EP,1,167,2021-09-15T15:03:08-07:00,8.659038066864,4,Pure_Forward.csv,READVersionB.csv,"Read Pure F B","Read Pure F B",BANKER,MONEY,Study1,F,82,46,Test,User,-,,Recall,Recall2,8271,"money ",100,6306,7289,1,1,,1
w10082420,rqn6slwf97,Nick_Dissertation_EX2_EP,1,168,2021-09-15T15:03:13-07:00,5.7406139373779,4,Pure_Forward.csv,READVersionB.csv,"Read Pure F B","Read Pure F B",NAP,SLEEP,Study1,F,84,43,Test,User,-,,Recall,Recall2,5300,"sleep ",100,2966,4321,1,1,,1
w10082420,rqn6slwf97,Nick_Dissertation_EX2_EP,1,169,2021-09-15T15:03:25-07:00,11.500345945358,4,Pure_Forward.csv,READVersionB.csv,"Read Pure F B","Read Pure F B",HERD,COW,Study1,F,22,32,Test,User,-,,Recall,Recall2,11052,"sheep ",0,3035,4269,0,0,,1
w10082420,rqn6slwf97,Nick_Dissertation_EX2_EP,1,170,2021-09-15T15:03:30-07:00,5.0993661880493,4,Pure_Forward.csv,READVersionB.csv,"Read Pure F B","Read Pure F B",FAVORITE,BEST,Study1,F,75,30,Test,User,-,,Recall,Recall2,4706,"best ",100,2792,3619,1,1,,1
w10082420,rqn6slwf97,Nick_Dissertation_EX2_EP,1,171,2021-09-15T15:03:34-07:00,3.9003758430481,4,Pure_Forward.csv,READVersionB.csv,"Read Pure F B","Read Pure F B",PANTHER,CAT,Study1,F,76,14,Test,User,-,,Recall,Recall2,3515,"cat ",100,1842,2480,1,1,,1
w10082420,rqn6slwf97,Nick_Dissertation_EX2_EP,1,172,2021-09-15T15:03:40-07:00,6.000067949295,4,Pure_Forward.csv,READVersionB.csv,"Read Pure F B","Read Pure F B",PENGUIN,BIRD,Study1,F,69,22,Test,User,-,,Recall,Recall2,5535,"bird ",100,2233,4489,1,1,,1
w10082420,rqn6slwf97,Nick_Dissertation_EX2_EP,1,173,2021-09-15T15:03:45-07:00,5.4401941299438,4,Pure_Forward.csv,READVersionB.csv,"Read Pure F B","Read Pure F B",ACTRESS,STAR,Study1,F,70,31,Test,User,-,,Recall,Recall2,4959,"star ",100,2932,3903,1,1,,1
w10082420,rqn6slwf97,Nick_Dissertation_EX2_EP,1,174,2021-09-15T15:03:56-07:00,10.879626989365,4,Pure_Forward.csv,READVersionB.csv,"Read Pure F B","Read Pure F B",GEOLOGY,ROCK,Study1,F,19,24,Test,User,-,,Recall,Recall2,10482,"rock ",100,5266,9471,1,1,,1
w10082420,rqn6slwf97,Nick_Dissertation_EX2_EP,1,175,2021-09-15T15:04:03-07:00,6.8800790309906,4,Pure_Forward.csv,READVersionB.csv,"Read Pure F B","Read Pure F B",BALLOON,POP,Study1,F,73,20,Test,User,-,,Recall,Recall2,6439,"pop ",100,4593,5374,1,1,,1
w10082420,rqn6slwf97,Nick_Dissertation_EX2_EP,1,176,2021-09-15T15:04:09-07:00,5.9691610336304,4,Pure_Forward.csv,READVersionB.csv,"Read Pure F B","Read Pure F B",TUNA,FISH,Study1,F,25,23,Test,User,-,,Recall,Recall2,5553,"fish ",100,3585,4460,1,1,,1
w10082420,rqn6slwf97,Nick_Dissertation_EX2_EP,1,177,2021-09-15T15:04:14-07:00,5.080817937851,4,Pure_Forward.csv,READVersionB.csv,"Read Pure F B","Read Pure F B",PAW,DOG,Study1,F,15,29,Test,User,-,,Recall,Recall2,4629,"dog ",100,2913,3637,1,1,,1
w10082420,rqn6slwf97,Nick_Dissertation_EX2_EP,1,178,2021-09-15T15:04:19-07:00,5.320296049118,4,Pure_Forward.csv,READVersionB.csv,"Read Pure F B","Read Pure F B",HYGIENE,CLEAN,Study1,F,17,45,Test,User,-,,Recall,Recall2,4938,"clean ",100,2645,3813,1,1,,1
w10082420,rqn6slwf97,Nick_Dissertation_EX2_EP,1,179,2021-09-15T15:04:25-07:00,5.2697639465332,4,Pure_Forward.csv,READVersionB.csv,"Read Pure F B","Read Pure F B",CREDIT,CARD,Study1,F,23,18,Test,User,-,,Recall,Recall2,4854,"car ",85.714285714286,3253,3864,0,1,,1
w10082420,rqn6slwf97,Nick_Dissertation_EX2_EP,1,180,2021-09-15T15:04:33-07:00,8.0604720115662,4,Pure_Forward.csv,READVersionB.csv,"Read Pure F B","Read Pure F B",TRUTHFUL,HONEST,Study1,F,83,39,Test,User,-,,Recall,Recall2,7656,"honest ",100,5361,6629,1,1,,1
w10082420,rqn6slwf97,Nick_Dissertation_EX2_EP,1,181,2021-09-15T15:04:41-07:00,8.6250748634338,4,Pure_Forward.csv,READVersionB.csv,"Read Pure F B","Read Pure F B",VILLAIN,BAD,Study1,F,68,40,Test,User,-,,Recall,Recall2,8009,"bad ",100,6314,6926,1,1,,1
w10082420,rqn6slwf97,Nick_Dissertation_EX2_EP,1,182,2021-09-15T15:04:46-07:00,4.1699001789093,4,Pure_Forward.csv,READVersionB.csv,"Read Pure F B","Read Pure F B",STRAWBERRY,FRUIT,Study1,F,74,44,Test,User,-,,Recall,Recall2,3796,"fruit ",100,1804,2713,1,1,,1
w10082420,rqn6slwf97,Nick_Dissertation_EX2_EP,1,183,2021-09-15T15:04:49-07:00,3.7594749927521,4,Pure_Forward.csv,READVersionB.csv,"Read Pure F B","Read Pure F B",DELINQUENT,BAD,Study1,F,6,25,Test,User,-,,Recall,Recall2,3312,"bad ",100,1646,2282,1,1,,1
w10082420,rqn6slwf97,Nick_Dissertation_EX2_EP,1,184,2021-09-15T15:04:54-07:00,5.1001689434052,4,Pure_Forward.csv,READVersionB.csv,"Read Pure F B","Read Pure F B",COFFIN,DEAD,Study1,F,78,11,Test,User,-,,Recall,Recall2,4676,"dead ",100,2901,3629,1,1,,1
w10082420,rqn6slwf97,Nick_Dissertation_EX2_EP,1,185,2021-09-15T15:04:59-07:00,4.1793010234833,4,Pure_Forward.csv,READVersionB.csv,"Read Pure F B","Read Pure F B",SARDINE,FISH,Study1,F,80,27,Test,User,-,,Recall,Recall2,3788,"fish ",100,1681,2697,1,1,,1
w10082420,rqn6slwf97,Nick_Dissertation_EX2_EP,1,186,2021-09-15T15:05:13-07:00,14.041051864624,4,Pure_Forward.csv,READVersionB.csv,"Read Pure F B","Read Pure F B",HORNET,STING,Study1,F,11,38,Test,User,-,,Recall,Recall2,13571,"sting ",100,10779,12521,1,1,,1
w10082420,rqn6slwf97,Nick_Dissertation_EX2_EP,1,187,2021-09-15T15:05:19-07:00,6.3706841468811,4,Pure_Forward.csv,READVersionB.csv,"Read Pure F B","Read Pure F B",BRAWL,FIGHT,Study1,F,85,37,Test,User,-,,Recall,Recall2,5915,"fight ",100,4134,5013,1,1,,1
w10082420,rqn6slwf97,Nick_Dissertation_EX2_EP,1,188,2021-09-15T15:05:24-07:00,5.2687180042267,4,Pure_Forward.csv,READVersionB.csv,"Read Pure F B","Read Pure F B",LEAGUE,BASEBALL,Study1,F,81,12,Test,User,-,,Recall,Recall2,4848,"baseball ",100,1732,3980,1,1,,1
w10082420,rqn6slwf97,Nick_Dissertation_EX2_EP,1,189,2021-09-15T15:05:31-07:00,6.9577748775482,4,Pure_Forward.csv,READVersionB.csv,"Read Pure F B","Read Pure F B",,,,,,0,Instruct,User,-,"You have completed this section. Please press Enter.",,Instruct7,6562,,,-1,-1,,,,1
w10082420,rqn6slwf97,Nick_Dissertation_EX2_EP,1,190,2021-09-15T15:05:35-07:00,3.8804919719696,4,Pure_Forward.csv,READVersionB.csv,"Read Pure F B","Read Pure F B",,,,,,0,Instruct,User,-,"The following screen will ask you a few questions abour your experience today. You must complete these questions to receive credit.",,Instruct8,3450,,,-1,-1,,,,1
