Username,ID,ExperimentName,Session,Trial,Date,TimeDif,"Condition Number","Stimuli File","Order File","Condition Description","Condition Notes",Stimuli*Cue,Stimuli*Answer,Stimuli*Shuffle,"Stimuli*Stimuli Notes",Stimuli*Value,Procedure*Item,"Procedure*Trial Type","Procedure*Max Time","Procedure*Min Time",Procedure*Text,"Procedure*Procedure Notes",Procedure*Shuffle,Response*RT,Response*Response,Response*Accuracy,Response*RTfirst,Response*RTlast,Response*strictAcc,Response*lenientAcc,Response*focus,Response*Focus
w10023423MH,md4xs0o1y1,Nick_Dissertation_EX2_EP,1,1,2021-09-08T15:40:07-07:00,11.428771018982,1,Mixed_Stim.csv,READVersionA.csv,"Read Mixed A","Read Mixed A",,,,,,0,Instruct,-,10,"Please study each of the following word pairs. Remember that your memory will be tested! Each pair will be displayed on the computer screen and will automatically advance to the next pair. Press ENTER when you are ready to begin.",Initial_Instruct,Instruct1,11260,,,-1,-1,,,,1
w10023423MH,md4xs0o1y1,Nick_Dissertation_EX2_EP,1,2,2021-09-08T15:40:15-07:00,8.2349779605865,1,Mixed_Stim.csv,READVersionA.csv,"Read Mixed A","Read Mixed A",PEANUT,BUTTER,BUFFER1,Buffer,3,2,STUDY,8,8,,Study/JOL,BUFFER,8001,,,-1,-1,,,,1
w10023423MH,md4xs0o1y1,Nick_Dissertation_EX2_EP,1,3,2021-09-08T15:40:23-07:00,8.1947779655457,1,Mixed_Stim.csv,READVersionA.csv,"Read Mixed A","Read Mixed A",SCARE,HIDE,BUFFER1,Buffer,4,4,STUDY,8,8,,Study/JOL,BUFFER,8004,,,-1,-1,,,,1
w10023423MH,md4xs0o1y1,Nick_Dissertation_EX2_EP,1,4,2021-09-08T15:40:32-07:00,8.1935660839081,1,Mixed_Stim.csv,READVersionA.csv,"Read Mixed A","Read Mixed A",TREES,GREEN,BUFFER1,Buffer,1,6,STUDY,8,8,,Study/JOL,BUFFER,8003,,,-1,-1,,,,1
w10023423MH,md4xs0o1y1,Nick_Dissertation_EX2_EP,1,5,2021-09-08T15:40:40-07:00,8.1917018890381,1,Mixed_Stim.csv,READVersionA.csv,"Read Mixed A","Read Mixed A",SPACE,JAM,BUFFER1,Buffer,5,5,STUDY,8,8,,Study/JOL,BUFFER,8002,,,-1,-1,,,,1
w10023423MH,md4xs0o1y1,Nick_Dissertation_EX2_EP,1,6,2021-09-08T15:40:48-07:00,8.1948940753937,1,Mixed_Stim.csv,READVersionA.csv,"Read Mixed A","Read Mixed A",BASEBALL,CATCHER,BUFFER1,Buffer,2,3,STUDY,8,8,,Study/JOL,BUFFER,8003,,,-1,-1,,,,1
w10023423MH,md4xs0o1y1,Nick_Dissertation_EX2_EP,1,7,2021-09-08T15:40:56-07:00,8.1937649250031,1,Mixed_Stim.csv,READVersionA.csv,"Read Mixed A","Read Mixed A",DISCOVER,FLOOR,Study1,U,71,39,STUDY,8,8,,Study/JOL,"Study Phase",8000,,,-1,-1,,,,1
w10023423MH,md4xs0o1y1,Nick_Dissertation_EX2_EP,1,8,2021-09-08T15:41:04-07:00,8.189110994339,1,Mixed_Stim.csv,READVersionA.csv,"Read Mixed A","Read Mixed A",HYGIENE,CLEAN,Study1,F,17,9,STUDY,8,8,,Study/JOL,"Study Phase",8005,,,-1,-1,,,,1
w10023423MH,md4xs0o1y1,Nick_Dissertation_EX2_EP,1,9,2021-09-08T15:41:13-07:00,8.1902351379395,1,Mixed_Stim.csv,READVersionA.csv,"Read Mixed A","Read Mixed A",CASH,WOULD,Study1,U,83,17,STUDY,8,8,,Study/JOL,"Study Phase",8003,,,-1,-1,,,,1
w10023423MH,md4xs0o1y1,Nick_Dissertation_EX2_EP,1,10,2021-09-08T15:41:21-07:00,8.193382024765,1,Mixed_Stim.csv,READVersionA.csv,"Read Mixed A","Read Mixed A",ARTERY,BRONZE,Study1,U,74,46,STUDY,8,8,,Study/JOL,"Study Phase",8001,,,-1,-1,,,,1
w10023423MH,md4xs0o1y1,Nick_Dissertation_EX2_EP,1,11,2021-09-08T15:41:29-07:00,8.1962158679962,1,Mixed_Stim.csv,READVersionA.csv,"Read Mixed A","Read Mixed A",GEOLOGY,ROCK,Study1,F,19,22,STUDY,8,8,,Study/JOL,"Study Phase",8002,,,-1,-1,,,,1
w10023423MH,md4xs0o1y1,Nick_Dissertation_EX2_EP,1,12,2021-09-08T15:41:37-07:00,8.1889340877533,1,Mixed_Stim.csv,READVersionA.csv,"Read Mixed A","Read Mixed A",VALLEY,ADD,Study1,U,82,32,STUDY,8,8,,Study/JOL,"Study Phase",8001,,,-1,-1,,,,1
w10023423MH,md4xs0o1y1,Nick_Dissertation_EX2_EP,1,13,2021-09-08T15:41:45-07:00,8.1914319992065,1,Mixed_Stim.csv,READVersionA.csv,"Read Mixed A","Read Mixed A",ALLOW,TUCK,Study1,U,78,40,STUDY,8,8,,Study/JOL,"Study Phase",8001,,,-1,-1,,,,1
w10023423MH,md4xs0o1y1,Nick_Dissertation_EX2_EP,1,14,2021-09-08T15:41:54-07:00,8.1955189704895,1,Mixed_Stim.csv,READVersionA.csv,"Read Mixed A","Read Mixed A",HIDE,SICK,Study1,U,84,12,STUDY,8,8,,Study/JOL,"Study Phase",8001,,,-1,-1,,,,1
w10023423MH,md4xs0o1y1,Nick_Dissertation_EX2_EP,1,15,2021-09-08T15:42:02-07:00,8.1958739757538,1,Mixed_Stim.csv,READVersionA.csv,"Read Mixed A","Read Mixed A",SWAN,BIRD,Study1,F,14,37,STUDY,8,8,,Study/JOL,"Study Phase",8001,,,-1,-1,,,,1
w10023423MH,md4xs0o1y1,Nick_Dissertation_EX2_EP,1,16,2021-09-08T15:42:10-07:00,8.1994631290436,1,Mixed_Stim.csv,READVersionA.csv,"Read Mixed A","Read Mixed A",MACHINE,POSITION,Study1,U,76,11,STUDY,8,8,,Study/JOL,"Study Phase",8000,,,-1,-1,,,,1
w10023423MH,md4xs0o1y1,Nick_Dissertation_EX2_EP,1,17,2021-09-08T15:42:18-07:00,8.1941909790039,1,Mixed_Stim.csv,READVersionA.csv,"Read Mixed A","Read Mixed A",ORCHID,FLOWER,Study1,F,24,45,STUDY,8,8,,Study/JOL,"Study Phase",8000,,,-1,-1,,,,1
w10023423MH,md4xs0o1y1,Nick_Dissertation_EX2_EP,1,18,2021-09-08T15:42:26-07:00,8.3052308559418,1,Mixed_Stim.csv,READVersionA.csv,"Read Mixed A","Read Mixed A",FIX,HAND,Study1,U,75,24,STUDY,8,8,,Study/JOL,"Study Phase",8001,,,-1,-1,,,,1
w10023423MH,md4xs0o1y1,Nick_Dissertation_EX2_EP,1,19,2021-09-08T15:42:35-07:00,8.3967549800873,1,Mixed_Stim.csv,READVersionA.csv,"Read Mixed A","Read Mixed A",STRONG,ACCIDENT,Study1,U,80,16,STUDY,8,8,,Study/JOL,"Study Phase",8002,,,-1,-1,,,,1
w10023423MH,md4xs0o1y1,Nick_Dissertation_EX2_EP,1,20,2021-09-08T15:42:43-07:00,8.192889213562,1,Mixed_Stim.csv,READVersionA.csv,"Read Mixed A","Read Mixed A",DIETARY,SACKING,Study1,U,67,36,STUDY,8,8,,Study/JOL,"Study Phase",8001,,,-1,-1,,,,1
w10023423MH,md4xs0o1y1,Nick_Dissertation_EX2_EP,1,21,2021-09-08T15:42:51-07:00,8.1971309185028,1,Mixed_Stim.csv,READVersionA.csv,"Read Mixed A","Read Mixed A",HERD,COW,Study1,F,22,38,STUDY,8,8,,Study/JOL,"Study Phase",8001,,,-1,-1,,,,1
w10023423MH,md4xs0o1y1,Nick_Dissertation_EX2_EP,1,22,2021-09-08T15:42:59-07:00,8.2268290519714,1,Mixed_Stim.csv,READVersionA.csv,"Read Mixed A","Read Mixed A",DISCUSSION,TALK,Study1,F,21,35,STUDY,8,8,,Study/JOL,"Study Phase",8000,,,-1,-1,,,,1
w10023423MH,md4xs0o1y1,Nick_Dissertation_EX2_EP,1,23,2021-09-08T15:43:08-07:00,8.1923179626465,1,Mixed_Stim.csv,READVersionA.csv,"Read Mixed A","Read Mixed A",PAW,DOG,Study1,F,15,41,STUDY,8,8,,Study/JOL,"Study Phase",8001,,,-1,-1,,,,1
w10023423MH,md4xs0o1y1,Nick_Dissertation_EX2_EP,1,24,2021-09-08T15:43:16-07:00,8.1921968460083,1,Mixed_Stim.csv,READVersionA.csv,"Read Mixed A","Read Mixed A",CREDIT,CARD,Study1,F,23,33,STUDY,8,8,,Study/JOL,"Study Phase",8001,,,-1,-1,,,,1
w10023423MH,md4xs0o1y1,Nick_Dissertation_EX2_EP,1,25,2021-09-08T15:43:24-07:00,8.1926960945129,1,Mixed_Stim.csv,READVersionA.csv,"Read Mixed A","Read Mixed A",TUNA,FISH,Study1,F,25,29,STUDY,8,8,,Study/JOL,"Study Phase",8002,,,-1,-1,,,,1
w10023423MH,md4xs0o1y1,Nick_Dissertation_EX2_EP,1,26,2021-09-08T15:43:32-07:00,8.3008270263672,1,Mixed_Stim.csv,READVersionA.csv,"Read Mixed A","Read Mixed A",BRIDGE,WATER,Study1,F,18,15,STUDY,8,8,,Study/JOL,"Study Phase",8001,,,-1,-1,,,,1
w10023423MH,md4xs0o1y1,Nick_Dissertation_EX2_EP,1,27,2021-09-08T15:43:41-07:00,8.5861110687256,1,Mixed_Stim.csv,READVersionA.csv,"Read Mixed A","Read Mixed A",EDITOR,NEWS,Study1,F,10,21,STUDY,8,8,,Study/JOL,"Study Phase",8002,,,-1,-1,,,,1
w10023423MH,md4xs0o1y1,Nick_Dissertation_EX2_EP,1,28,2021-09-08T15:43:49-07:00,8.2015240192413,1,Mixed_Stim.csv,READVersionA.csv,"Read Mixed A","Read Mixed A",ART,LION,Study1,U,79,20,STUDY,8,8,,Study/JOL,"Study Phase",8001,,,-1,-1,,,,1
w10023423MH,md4xs0o1y1,Nick_Dissertation_EX2_EP,1,29,2021-09-08T15:43:57-07:00,8.2422177791595,1,Mixed_Stim.csv,READVersionA.csv,"Read Mixed A","Read Mixed A",BITTER,COLD,Study1,F,12,14,STUDY,8,8,,Study/JOL,"Study Phase",8001,,,-1,-1,,,,1
w10023423MH,md4xs0o1y1,Nick_Dissertation_EX2_EP,1,30,2021-09-08T15:44:06-07:00,8.2085230350494,1,Mixed_Stim.csv,READVersionA.csv,"Read Mixed A","Read Mixed A",CHISEL,HAMMER,Study1,F,9,18,STUDY,8,8,,Study/JOL,"Study Phase",8000,,,-1,-1,,,,1
w10023423MH,md4xs0o1y1,Nick_Dissertation_EX2_EP,1,31,2021-09-08T15:44:14-07:00,8.1899571418762,1,Mixed_Stim.csv,READVersionA.csv,"Read Mixed A","Read Mixed A",WAGE,MONEY,Study1,F,8,8,STUDY,8,8,,Study/JOL,"Study Phase",8003,,,-1,-1,,,,1
w10023423MH,md4xs0o1y1,Nick_Dissertation_EX2_EP,1,32,2021-09-08T15:44:22-07:00,8.1918749809265,1,Mixed_Stim.csv,READVersionA.csv,"Read Mixed A","Read Mixed A",WAY,OUT,Study1,F,16,31,STUDY,8,8,,Study/JOL,"Study Phase",8001,,,-1,-1,,,,1
w10023423MH,md4xs0o1y1,Nick_Dissertation_EX2_EP,1,33,2021-09-08T15:44:30-07:00,8.1953089237213,1,Mixed_Stim.csv,READVersionA.csv,"Read Mixed A","Read Mixed A",PUSHER,CLUTTER,Study1,U,66,42,STUDY,8,8,,Study/JOL,"Study Phase",8002,,,-1,-1,,,,1
w10023423MH,md4xs0o1y1,Nick_Dissertation_EX2_EP,1,34,2021-09-08T15:44:38-07:00,8.1934659481049,1,Mixed_Stim.csv,READVersionA.csv,"Read Mixed A","Read Mixed A",REVOLUTION,WAR,Study1,F,20,25,STUDY,8,8,,Study/JOL,"Study Phase",8001,,,-1,-1,,,,1
w10023423MH,md4xs0o1y1,Nick_Dissertation_EX2_EP,1,35,2021-09-08T15:44:47-07:00,8.1990461349487,1,Mixed_Stim.csv,READVersionA.csv,"Read Mixed A","Read Mixed A",SUGAR,RIDDLE,Study1,U,81,10,STUDY,8,8,,Study/JOL,"Study Phase",8002,,,-1,-1,,,,1
w10023423MH,md4xs0o1y1,Nick_Dissertation_EX2_EP,1,36,2021-09-08T15:44:55-07:00,8.1929769515991,1,Mixed_Stim.csv,READVersionA.csv,"Read Mixed A","Read Mixed A",HAPPY,CAR,Study1,U,77,43,STUDY,8,8,,Study/JOL,"Study Phase",8001,,,-1,-1,,,,1
w10023423MH,md4xs0o1y1,Nick_Dissertation_EX2_EP,1,37,2021-09-08T15:45:03-07:00,8.1792659759521,1,Mixed_Stim.csv,READVersionA.csv,"Read Mixed A","Read Mixed A",ROOT,PLANT,Study1,F,13,44,STUDY,8,8,,Study/JOL,"Study Phase",8002,,,-1,-1,,,,1
w10023423MH,md4xs0o1y1,Nick_Dissertation_EX2_EP,1,38,2021-09-08T15:45:11-07:00,8.1954729557037,1,Mixed_Stim.csv,READVersionA.csv,"Read Mixed A","Read Mixed A",DELINQUENT,BAD,Study1,F,6,13,STUDY,8,8,,Study/JOL,"Study Phase",8000,,,-1,-1,,,,1
w10023423MH,md4xs0o1y1,Nick_Dissertation_EX2_EP,1,39,2021-09-08T15:45:19-07:00,8.1970870494843,1,Mixed_Stim.csv,READVersionA.csv,"Read Mixed A","Read Mixed A",HORNET,STING,Study1,F,11,23,STUDY,8,8,,Study/JOL,"Study Phase",8001,,,-1,-1,,,,1
w10023423MH,md4xs0o1y1,Nick_Dissertation_EX2_EP,1,40,2021-09-08T15:45:28-07:00,8.1984369754791,1,Mixed_Stim.csv,READVersionA.csv,"Read Mixed A","Read Mixed A",LIFT,WOMAN,Study1,U,69,28,STUDY,8,8,,Study/JOL,"Study Phase",8003,,,-1,-1,,,,1
w10023423MH,md4xs0o1y1,Nick_Dissertation_EX2_EP,1,41,2021-09-08T15:45:36-07:00,8.2298350334167,1,Mixed_Stim.csv,READVersionA.csv,"Read Mixed A","Read Mixed A",DIGESTION,STOMACH,Study1,F,7,26,STUDY,8,8,,Study/JOL,"Study Phase",8002,,,-1,-1,,,,1
w10023423MH,md4xs0o1y1,Nick_Dissertation_EX2_EP,1,42,2021-09-08T15:45:44-07:00,8.1914920806885,1,Mixed_Stim.csv,READVersionA.csv,"Read Mixed A","Read Mixed A",KING,VASE,Study1,U,85,19,STUDY,8,8,,Study/JOL,"Study Phase",8000,,,-1,-1,,,,1
w10023423MH,md4xs0o1y1,Nick_Dissertation_EX2_EP,1,43,2021-09-08T15:45:52-07:00,8.1877689361572,1,Mixed_Stim.csv,READVersionA.csv,"Read Mixed A","Read Mixed A",SOON,BELT,Study1,U,70,34,STUDY,8,8,,Study/JOL,"Study Phase",8000,,,-1,-1,,,,1
w10023423MH,md4xs0o1y1,Nick_Dissertation_EX2_EP,1,44,2021-09-08T15:46:00-07:00,8.198401927948,1,Mixed_Stim.csv,READVersionA.csv,"Read Mixed A","Read Mixed A",DEATH,BUSINESS,Study1,U,72,27,STUDY,8,8,,Study/JOL,"Study Phase",8002,,,-1,-1,,,,1
w10023423MH,md4xs0o1y1,Nick_Dissertation_EX2_EP,1,45,2021-09-08T15:46:09-07:00,8.1972901821136,1,Mixed_Stim.csv,READVersionA.csv,"Read Mixed A","Read Mixed A",DEBATE,SIGHT,Study1,U,73,7,STUDY,8,8,,Study/JOL,"Study Phase",8003,,,-1,-1,,,,1
w10023423MH,md4xs0o1y1,Nick_Dissertation_EX2_EP,1,46,2021-09-08T15:46:17-07:00,8.2043399810791,1,Mixed_Stim.csv,READVersionA.csv,"Read Mixed A","Read Mixed A",PARK,HUNGRY,Study1,U,68,30,STUDY,8,8,,Study/JOL,"Study Phase",8002,,,-1,-1,,,,1
w10023423MH,md4xs0o1y1,Nick_Dissertation_EX2_EP,1,47,2021-09-08T15:46:25-07:00,8.1884858608246,1,Mixed_Stim.csv,READVersionA.csv,"Read Mixed A","Read Mixed A",THING,STUFF,BUFFER2,Buffer,90,47,STUDY,8,8,,Study/JOL,BUFFER2,8000,,,-1,-1,,,,1
w10023423MH,md4xs0o1y1,Nick_Dissertation_EX2_EP,1,48,2021-09-08T15:46:33-07:00,8.1949760913849,1,Mixed_Stim.csv,READVersionA.csv,"Read Mixed A","Read Mixed A",MOON,SPACE,BUFFER2,Buffer,89,51,STUDY,8,8,,Study/JOL,BUFFER2,8001,,,-1,-1,,,,1
w10023423MH,md4xs0o1y1,Nick_Dissertation_EX2_EP,1,49,2021-09-08T15:46:41-07:00,8.1867208480835,1,Mixed_Stim.csv,READVersionA.csv,"Read Mixed A","Read Mixed A",MALT,CHOCOLATE,BUFFER2,Buffer,88,50,STUDY,8,8,,Study/JOL,BUFFER2,8000,,,-1,-1,,,,1
w10023423MH,md4xs0o1y1,Nick_Dissertation_EX2_EP,1,50,2021-09-08T15:46:50-07:00,8.2063200473785,1,Mixed_Stim.csv,READVersionA.csv,"Read Mixed A","Read Mixed A",GEESE,GOOSE,BUFFER2,Buffer,86,49,STUDY,8,8,,Study/JOL,BUFFER2,8003,,,-1,-1,,,,1
w10023423MH,md4xs0o1y1,Nick_Dissertation_EX2_EP,1,51,2021-09-08T15:46:58-07:00,8.1874070167542,1,Mixed_Stim.csv,READVersionA.csv,"Read Mixed A","Read Mixed A",SHERRIF,POLICE,BUFFER2,Buffer,87,48,STUDY,8,8,,Study/JOL,BUFFER2,8002,,,-1,-1,,,,1
w10023423MH,md4xs0o1y1,Nick_Dissertation_EX2_EP,1,52,2021-09-08T15:47:00-07:00,2.5701570510864,1,Mixed_Stim.csv,READVersionA.csv,"Read Mixed A","Read Mixed A",,,,,,0,Instruct,User,-,"You have completed this section. Please press Enter.",Filler_Instruction,Instruct2,2340,,,-1,-1,,,,1
w10023423MH,md4xs0o1y1,Nick_Dissertation_EX2_EP,1,53,2021-09-08T15:49:02-07:00,121.67816996574,1,Mixed_Stim.csv,READVersionA.csv,"Read Mixed A","Read Mixed A",,,,,,0,FreeRecall,120,120,"Please list the 50 US states in alphabetical order. The task will automatically advance to the next screen after two minutes.",,Filler1,120001,"Alabama Alaska Arizona Arkansas California Colorado Connecticut Delaware Florida Georgia Hawaii Idaho Illinois Iowa Kansas Kentucky Louisiana Maine Maryland Massachusetts Michigan Minnesota Mississippi Missouri Montana Nebraska Nevada New Hampshire New Jersey New Mexico New York ",0,8151,119737,0,0,,1
w10023423MH,md4xs0o1y1,Nick_Dissertation_EX2_EP,1,54,2021-09-08T15:49:14-07:00,12.366814136505,1,Mixed_Stim.csv,READVersionA.csv,"Read Mixed A","Read Mixed A",,,,,,0,Instruct,-,10,"You will now be presented with the first word from each of the previously studied item pairs. Please type the missing word. If you do not know the word, you may guess or press Enter to skip forward to the next pair.",,Instruct3,12085,,,-1,-1,,,,1
w10023423MH,md4xs0o1y1,Nick_Dissertation_EX2_EP,1,55,2021-09-08T15:49:19-07:00,4.2131268978119,1,Mixed_Stim.csv,READVersionA.csv,"Read Mixed A","Read Mixed A",ORCHID,FLOWER,Study1,F,24,45,Test,User,-,,Recall,Recall1,4013,flower,100,3281,3895,1,1,,1
w10023423MH,md4xs0o1y1,Nick_Dissertation_EX2_EP,1,56,2021-09-08T15:49:21-07:00,2.9535648822784,1,Mixed_Stim.csv,READVersionA.csv,"Read Mixed A","Read Mixed A",BRIDGE,WATER,Study1,F,18,15,Test,User,-,,Recall,Recall1,2765,water,100,1188,1747,1,1,,1
w10023423MH,md4xs0o1y1,Nick_Dissertation_EX2_EP,1,57,2021-09-08T15:49:24-07:00,2.1503820419312,1,Mixed_Stim.csv,READVersionA.csv,"Read Mixed A","Read Mixed A",HORNET,STING,Study1,F,11,23,Test,User,-,,Recall,Recall1,1965,sting,100,1317,1816,1,1,,1
w10023423MH,md4xs0o1y1,Nick_Dissertation_EX2_EP,1,58,2021-09-08T15:49:30-07:00,6.7571890354156,1,Mixed_Stim.csv,READVersionA.csv,"Read Mixed A","Read Mixed A",SUGAR,RIDDLE,Study1,U,81,10,Test,User,-,,Recall,Recall1,6566,riddle,100,5736,6437,1,1,,1
w10023423MH,md4xs0o1y1,Nick_Dissertation_EX2_EP,1,59,2021-09-08T15:49:34-07:00,3.160964012146,1,Mixed_Stim.csv,READVersionA.csv,"Read Mixed A","Read Mixed A",REVOLUTION,WAR,Study1,F,20,25,Test,User,-,,Recall,Recall1,2970,war,100,2532,2809,1,1,,1
w10023423MH,md4xs0o1y1,Nick_Dissertation_EX2_EP,1,60,2021-09-08T15:49:37-07:00,3.2631080150604,1,Mixed_Stim.csv,READVersionA.csv,"Read Mixed A","Read Mixed A",BITTER,COLD,Study1,F,12,14,Test,User,-,,Recall,Recall1,3072,cold,100,1578,2911,1,1,,1
w10023423MH,md4xs0o1y1,Nick_Dissertation_EX2_EP,1,61,2021-09-08T15:49:40-07:00,3.6860890388489,1,Mixed_Stim.csv,READVersionA.csv,"Read Mixed A","Read Mixed A",ROOT,PLANT,Study1,F,13,44,Test,User,-,,Recall,Recall1,3492,plant,100,2767,3363,1,1,,1
w10023423MH,md4xs0o1y1,Nick_Dissertation_EX2_EP,1,62,2021-09-08T15:49:49-07:00,8.6109869480133,1,Mixed_Stim.csv,READVersionA.csv,"Read Mixed A","Read Mixed A",HIDE,SICK,Study1,U,84,12,Test,User,-,,Recall,Recall1,8392,sick,100,2933,3378,1,1,,1
w10023423MH,md4xs0o1y1,Nick_Dissertation_EX2_EP,1,63,2021-09-08T15:49:58-07:00,8.4183990955353,1,Mixed_Stim.csv,READVersionA.csv,"Read Mixed A","Read Mixed A",DIGESTION,STOMACH,Study1,F,7,26,Test,User,-,,Recall,Recall1,8214,stomach,100,7288,8070,1,1,,1
w10023423MH,md4xs0o1y1,Nick_Dissertation_EX2_EP,1,64,2021-09-08T15:50:00-07:00,2.609992980957,1,Mixed_Stim.csv,READVersionA.csv,"Read Mixed A","Read Mixed A",DELINQUENT,BAD,Study1,F,6,13,Test,User,-,,Recall,Recall1,2422,bad,100,1923,2163,1,1,,1
w10023423MH,md4xs0o1y1,Nick_Dissertation_EX2_EP,1,65,2021-09-08T15:50:14-07:00,14.070986032486,1,Mixed_Stim.csv,READVersionA.csv,"Read Mixed A","Read Mixed A",VALLEY,ADD,Study1,U,82,32,Test,User,-,,Recall,Recall1,13880,add,100,13187,13695,1,1,,1
w10023423MH,md4xs0o1y1,Nick_Dissertation_EX2_EP,1,66,2021-09-08T15:50:17-07:00,2.9335548877716,1,Mixed_Stim.csv,READVersionA.csv,"Read Mixed A","Read Mixed A",PAW,DOG,Study1,F,15,41,Test,User,-,,Recall,Recall1,2742,dog,100,1737,1971,1,1,,1
w10023423MH,md4xs0o1y1,Nick_Dissertation_EX2_EP,1,67,2021-09-08T15:50:19-07:00,1.7736840248108,1,Mixed_Stim.csv,READVersionA.csv,"Read Mixed A","Read Mixed A",WAY,OUT,Study1,F,16,31,Test,User,-,,Recall,Recall1,1559,out,100,1138,1401,1,1,,1
w10023423MH,md4xs0o1y1,Nick_Dissertation_EX2_EP,1,68,2021-09-08T15:50:21-07:00,2.2488040924072,1,Mixed_Stim.csv,READVersionA.csv,"Read Mixed A","Read Mixed A",TUNA,FISH,Study1,F,25,29,Test,User,-,,Recall,Recall1,2055,fish,100,1591,1882,1,1,,1
w10023423MH,md4xs0o1y1,Nick_Dissertation_EX2_EP,1,69,2021-09-08T15:50:28-07:00,7.0421068668365,1,Mixed_Stim.csv,READVersionA.csv,"Read Mixed A","Read Mixed A",PUSHER,CLUTTER,Study1,U,66,42,Test,User,-,,Recall,Recall1,6841,clutter,100,5940,6697,1,1,,1
w10023423MH,md4xs0o1y1,Nick_Dissertation_EX2_EP,1,70,2021-09-08T15:50:40-07:00,12.00344991684,1,Mixed_Stim.csv,READVersionA.csv,"Read Mixed A","Read Mixed A",DISCOVER,FLOOR,Study1,U,71,39,Test,User,-,,Recall,Recall1,11808,floor,100,10709,11684,1,1,,1
w10023423MH,md4xs0o1y1,Nick_Dissertation_EX2_EP,1,71,2021-09-08T15:50:45-07:00,5.1882531642914,1,Mixed_Stim.csv,READVersionA.csv,"Read Mixed A","Read Mixed A",CASH,WOULD,Study1,U,83,17,Test,User,-,,Recall,Recall1,4994,would,100,4363,4843,1,1,,1
w10023423MH,md4xs0o1y1,Nick_Dissertation_EX2_EP,1,72,2021-09-08T15:50:48-07:00,2.1811230182648,1,Mixed_Stim.csv,READVersionA.csv,"Read Mixed A","Read Mixed A",STRONG,ACCIDENT,Study1,U,80,16,Test,User,-,,Recall,Recall1,1994,woman,30.769230769231,1269,1768,0,0,,1
w10023423MH,md4xs0o1y1,Nick_Dissertation_EX2_EP,1,73,2021-09-08T15:51:08-07:00,20.777752876282,1,Mixed_Stim.csv,READVersionA.csv,"Read Mixed A","Read Mixed A",CREDIT,CARD,Study1,F,23,33,Test,User,-,,Recall,Recall1,20587,,0,-1,-1,0,0,,1
w10023423MH,md4xs0o1y1,Nick_Dissertation_EX2_EP,1,74,2021-09-08T15:51:11-07:00,2.9015581607819,1,Mixed_Stim.csv,READVersionA.csv,"Read Mixed A","Read Mixed A",GEOLOGY,ROCK,Study1,F,19,22,Test,User,-,,Recall,Recall1,2687,rock,100,2143,2482,1,1,,1
w10023423MH,md4xs0o1y1,Nick_Dissertation_EX2_EP,1,75,2021-09-08T15:51:24-07:00,12.679644823074,1,Mixed_Stim.csv,READVersionA.csv,"Read Mixed A","Read Mixed A",SOON,BELT,Study1,U,70,34,Test,User,-,,Recall,Recall1,12493,belt,100,11094,12352,1,1,,1
w10023423MH,md4xs0o1y1,Nick_Dissertation_EX2_EP,1,76,2021-09-08T15:51:30-07:00,5.6280131340027,1,Mixed_Stim.csv,READVersionA.csv,"Read Mixed A","Read Mixed A",CHISEL,HAMMER,Study1,F,9,18,Test,User,-,,Recall,Recall1,5436,hammer,100,4785,5324,1,1,,1
w10023423MH,md4xs0o1y1,Nick_Dissertation_EX2_EP,1,77,2021-09-08T15:51:32-07:00,2.0173208713531,1,Mixed_Stim.csv,READVersionA.csv,"Read Mixed A","Read Mixed A",HERD,COW,Study1,F,22,38,Test,User,-,,Recall,Recall1,1828,cow,100,1365,1622,1,1,,1
w10023423MH,md4xs0o1y1,Nick_Dissertation_EX2_EP,1,78,2021-09-08T15:51:38-07:00,6.0992531776428,1,Mixed_Stim.csv,READVersionA.csv,"Read Mixed A","Read Mixed A",FIX,HAND,Study1,U,75,24,Test,User,-,,Recall,Recall1,5914,hand,100,5451,5785,1,1,,1
w10023423MH,md4xs0o1y1,Nick_Dissertation_EX2_EP,1,79,2021-09-08T15:51:53-07:00,15.049781799316,1,Mixed_Stim.csv,READVersionA.csv,"Read Mixed A","Read Mixed A",PARK,HUNGRY,Study1,U,68,30,Test,User,-,,Recall,Recall1,14856,hungry,100,13903,14687,1,1,,1
w10023423MH,md4xs0o1y1,Nick_Dissertation_EX2_EP,1,80,2021-09-08T15:52:02-07:00,9.1168971061707,1,Mixed_Stim.csv,READVersionA.csv,"Read Mixed A","Read Mixed A",SWAN,BIRD,Study1,F,14,37,Test,User,-,,Recall,Recall1,8919,bird,100,8406,8786,1,1,,1
w10023423MH,md4xs0o1y1,Nick_Dissertation_EX2_EP,1,81,2021-09-08T15:52:14-07:00,12.459110021591,1,Mixed_Stim.csv,READVersionA.csv,"Read Mixed A","Read Mixed A",DEBATE,SIGHT,Study1,U,73,7,Test,User,-,,Recall,Recall1,12215,sight,100,11705,12107,1,1,,1
w10023423MH,md4xs0o1y1,Nick_Dissertation_EX2_EP,1,82,2021-09-08T15:52:21-07:00,6.3920440673828,1,Mixed_Stim.csv,READVersionA.csv,"Read Mixed A","Read Mixed A",WAGE,MONEY,Study1,F,8,8,Test,User,-,,Recall,Recall1,6193,money,100,5285,6009,1,1,,1
w10023423MH,md4xs0o1y1,Nick_Dissertation_EX2_EP,1,83,2021-09-08T15:52:32-07:00,11.342000007629,1,Mixed_Stim.csv,READVersionA.csv,"Read Mixed A","Read Mixed A",HYGIENE,CLEAN,Study1,F,17,9,Test,User,-,,Recall,Recall1,11152,clean,100,10475,10973,1,1,,1
w10023423MH,md4xs0o1y1,Nick_Dissertation_EX2_EP,1,84,2021-09-08T15:52:54-07:00,22.25213599205,1,Mixed_Stim.csv,READVersionA.csv,"Read Mixed A","Read Mixed A",ARTERY,BRONZE,Study1,U,74,46,Test,User,-,,Recall,Recall1,22046,bronze,100,21108,21911,1,1,,1
w10023423MH,md4xs0o1y1,Nick_Dissertation_EX2_EP,1,85,2021-09-08T15:53:13-07:00,18.275040864944,1,Mixed_Stim.csv,READVersionA.csv,"Read Mixed A","Read Mixed A",HAPPY,CAR,Study1,U,77,43,Test,User,-,,Recall,Recall1,18016,car,100,17478,17892,1,1,,1
w10023423MH,md4xs0o1y1,Nick_Dissertation_EX2_EP,1,86,2021-09-08T15:53:23-07:00,10.519959926605,1,Mixed_Stim.csv,READVersionA.csv,"Read Mixed A","Read Mixed A",ALLOW,TUCK,Study1,U,78,40,Test,User,-,,Recall,Recall1,10329,tuck,100,9606,9924,1,1,,1
w10023423MH,md4xs0o1y1,Nick_Dissertation_EX2_EP,1,87,2021-09-08T15:53:29-07:00,5.7513420581818,1,Mixed_Stim.csv,READVersionA.csv,"Read Mixed A","Read Mixed A",ART,LION,Study1,U,79,20,Test,User,-,,Recall,Recall1,5506,lion,100,4832,5310,1,1,,1
w10023423MH,md4xs0o1y1,Nick_Dissertation_EX2_EP,1,88,2021-09-08T15:53:40-07:00,11.09638094902,1,Mixed_Stim.csv,READVersionA.csv,"Read Mixed A","Read Mixed A",KING,VASE,Study1,U,85,19,Test,User,-,,Recall,Recall1,10838,vase,100,10337,10691,1,1,,1
w10023423MH,md4xs0o1y1,Nick_Dissertation_EX2_EP,1,89,2021-09-08T15:53:43-07:00,3.1161119937897,1,Mixed_Stim.csv,READVersionA.csv,"Read Mixed A","Read Mixed A",LIFT,WOMAN,Study1,U,69,28,Test,User,-,,Recall,Recall1,2927,woman,100,1534,2750,1,1,,1
w10023423MH,md4xs0o1y1,Nick_Dissertation_EX2_EP,1,90,2021-09-08T15:53:53-07:00,9.8182721138,1,Mixed_Stim.csv,READVersionA.csv,"Read Mixed A","Read Mixed A",MACHINE,POSITION,Study1,U,76,11,Test,User,-,,Recall,Recall1,9578,position,100,8048,9404,1,1,,1
w10023423MH,md4xs0o1y1,Nick_Dissertation_EX2_EP,1,91,2021-09-08T15:53:58-07:00,5.6177270412445,1,Mixed_Stim.csv,READVersionA.csv,"Read Mixed A","Read Mixed A",DISCUSSION,TALK,Study1,F,21,35,Test,User,-,,Recall,Recall1,5424,talk,100,4869,5203,1,1,,1
w10023423MH,md4xs0o1y1,Nick_Dissertation_EX2_EP,1,92,2021-09-08T15:54:08-07:00,9.2116310596466,1,Mixed_Stim.csv,READVersionA.csv,"Read Mixed A","Read Mixed A",DEATH,BUSINESS,Study1,U,72,27,Test,User,-,,Recall,Recall1,9003,business,100,7869,8857,1,1,,1
w10023423MH,md4xs0o1y1,Nick_Dissertation_EX2_EP,1,93,2021-09-08T15:54:16-07:00,7.8354849815369,1,Mixed_Stim.csv,READVersionA.csv,"Read Mixed A","Read Mixed A",DIETARY,SACKING,Study1,U,67,36,Test,User,-,,Recall,Recall1,7644,sacking,100,6703,7540,1,1,,1
w10023423MH,md4xs0o1y1,Nick_Dissertation_EX2_EP,1,94,2021-09-08T15:54:23-07:00,7.3791899681091,1,Mixed_Stim.csv,READVersionA.csv,"Read Mixed A","Read Mixed A",EDITOR,NEWS,Study1,F,10,21,Test,User,-,,Recall,Recall1,7183,news,100,6591,7042,1,1,,1
w10023423MH,md4xs0o1y1,Nick_Dissertation_EX2_EP,1,95,2021-09-08T15:54:41-07:00,17.818266868591,1,Mixed_Stim.csv,READVersionA.csv,"Read Mixed A","Read Mixed A",,,,,,0,Instruct,-,10,"You will now be presented with a new set of word pairs. Please study each pair. Remember that your memory will be tested! Each pair will be displayed on the computer screen and will automatically advance to the next pair. Press ENTER when you are ready to begin.",Initial_Instruct,Instruct4,17631,,,-1,-1,,,,1
w10023423MH,md4xs0o1y1,Nick_Dissertation_EX2_EP,1,96,2021-09-08T15:54:49-07:00,8.1970021724701,1,Mixed_Stim.csv,READVersionA.csv,"Read Mixed A","Read Mixed A",SHRIMP,FISH,BUFFER3,Buffer,93,56,STUDY,8,8,,Study/JOL,BUFFER3,8003,,,-1,-1,,,,1
w10023423MH,md4xs0o1y1,Nick_Dissertation_EX2_EP,1,97,2021-09-08T15:54:57-07:00,8.1946218013763,1,Mixed_Stim.csv,READVersionA.csv,"Read Mixed A","Read Mixed A",CAMP,ADVENTURE,BUFFER3,Buffer,95,54,STUDY,8,8,,Study/JOL,BUFFER3,8001,,,-1,-1,,,,1
w10023423MH,md4xs0o1y1,Nick_Dissertation_EX2_EP,1,98,2021-09-08T15:55:05-07:00,8.1944990158081,1,Mixed_Stim.csv,READVersionA.csv,"Read Mixed A","Read Mixed A",NOODLE,STRING,BUFFER3,Buffer,92,53,STUDY,8,8,,Study/JOL,BUFFER3,8000,,,-1,-1,,,,1
w10023423MH,md4xs0o1y1,Nick_Dissertation_EX2_EP,1,99,2021-09-08T15:55:14-07:00,8.20134806633,1,Mixed_Stim.csv,READVersionA.csv,"Read Mixed A","Read Mixed A",ICE,FROZEN,BUFFER3,Buffer,94,55,STUDY,8,8,,Study/JOL,BUFFER3,8001,,,-1,-1,,,,1
w10023423MH,md4xs0o1y1,Nick_Dissertation_EX2_EP,1,100,2021-09-08T15:55:22-07:00,8.2211949825287,1,Mixed_Stim.csv,READVersionA.csv,"Read Mixed A","Read Mixed A",CARROT,POTATO,BUFFER3,Buffer,91,52,STUDY,8,8,,Study/JOL,BUFFER3,8000,,,-1,-1,,,,1
w10023423MH,md4xs0o1y1,Nick_Dissertation_EX2_EP,1,101,2021-09-08T15:55:30-07:00,8.2042241096497,1,Mixed_Stim.csv,READVersionA.csv,"Read Mixed A","Read Mixed A",MULE,DONKEY,Study2,F,108,96,STUDY,8,8,,Study/JOL,"Study Phase2",8001,,,-1,-1,,,,1
w10023423MH,md4xs0o1y1,Nick_Dissertation_EX2_EP,1,102,2021-09-08T15:55:38-07:00,8.1958110332489,1,Mixed_Stim.csv,READVersionA.csv,"Read Mixed A","Read Mixed A",FEUD,FIGHT,Study2,F,113,72,STUDY,8,8,,Study/JOL,"Study Phase2",8001,,,-1,-1,,,,1
w10023423MH,md4xs0o1y1,Nick_Dissertation_EX2_EP,1,103,2021-09-08T15:55:46-07:00,8.1975147724152,1,Mixed_Stim.csv,READVersionA.csv,"Read Mixed A","Read Mixed A",MOAT,CLEAR,Study2,U,169,63,STUDY,8,8,,Study/JOL,"Study Phase2",8004,,,-1,-1,,,,1
w10023423MH,md4xs0o1y1,Nick_Dissertation_EX2_EP,1,104,2021-09-08T15:55:55-07:00,8.1943130493164,1,Mixed_Stim.csv,READVersionA.csv,"Read Mixed A","Read Mixed A",CACTUS,PLANT,Study2,F,98,95,STUDY,8,8,,Study/JOL,"Study Phase2",8003,,,-1,-1,,,,1
w10023423MH,md4xs0o1y1,Nick_Dissertation_EX2_EP,1,105,2021-09-08T15:56:03-07:00,8.1939570903778,1,Mixed_Stim.csv,READVersionA.csv,"Read Mixed A","Read Mixed A",DOCUMENT,PAPER,Study2,F,109,71,STUDY,8,8,,Study/JOL,"Study Phase2",8002,,,-1,-1,,,,1
w10023423MH,md4xs0o1y1,Nick_Dissertation_EX2_EP,1,106,2021-09-08T15:56:11-07:00,8.1930918693542,1,Mixed_Stim.csv,READVersionA.csv,"Read Mixed A","Read Mixed A",STRETCH,CLOTH,Study2,U,157,85,STUDY,8,8,,Study/JOL,"Study Phase2",8002,,,-1,-1,,,,1
w10023423MH,md4xs0o1y1,Nick_Dissertation_EX2_EP,1,107,2021-09-08T15:56:19-07:00,8.1914870738983,1,Mixed_Stim.csv,READVersionA.csv,"Read Mixed A","Read Mixed A",HORNET,STING,Study1,F,11,23,STUDY,8,8,,Study/JOL,"Study Phase2",8003,,,-1,-1,,,,1
w10023423MH,md4xs0o1y1,Nick_Dissertation_EX2_EP,1,108,2021-09-08T15:56:27-07:00,8.1943509578705,1,Mixed_Stim.csv,READVersionA.csv,"Read Mixed A","Read Mixed A",DRIVER,CAR,Study2,F,106,89,STUDY,8,8,,Study/JOL,"Study Phase2",8003,,,-1,-1,,,,1
w10023423MH,md4xs0o1y1,Nick_Dissertation_EX2_EP,1,109,2021-09-08T15:56:36-07:00,8.1934580802917,1,Mixed_Stim.csv,READVersionA.csv,"Read Mixed A","Read Mixed A",FUZZY,BANG,Study2,U,168,80,STUDY,8,8,,Study/JOL,"Study Phase2",8002,,,-1,-1,,,,1
w10023423MH,md4xs0o1y1,Nick_Dissertation_EX2_EP,1,110,2021-09-08T15:56:44-07:00,8.1941919326782,1,Mixed_Stim.csv,READVersionA.csv,"Read Mixed A","Read Mixed A",CRACKLE,ABLE,Study2,U,162,67,STUDY,8,8,,Study/JOL,"Study Phase2",8001,,,-1,-1,,,,1
w10023423MH,md4xs0o1y1,Nick_Dissertation_EX2_EP,1,111,2021-09-08T15:56:52-07:00,8.1694910526276,1,Mixed_Stim.csv,READVersionA.csv,"Read Mixed A","Read Mixed A",CAKE,CLOTHES,Study2,U,166,65,STUDY,8,8,,Study/JOL,"Study Phase2",8001,,,-1,-1,,,,1
w10023423MH,md4xs0o1y1,Nick_Dissertation_EX2_EP,1,112,2021-09-08T15:57:00-07:00,8.1912000179291,1,Mixed_Stim.csv,READVersionA.csv,"Read Mixed A","Read Mixed A",LOAN,SIGN,Study2,U,171,69,STUDY,8,8,,Study/JOL,"Study Phase2",8000,,,-1,-1,,,,1
w10023423MH,md4xs0o1y1,Nick_Dissertation_EX2_EP,1,113,2021-09-08T15:57:08-07:00,8.1915600299835,1,Mixed_Stim.csv,READVersionA.csv,"Read Mixed A","Read Mixed A",FURRY,DOG,Study2,F,102,74,STUDY,8,8,,Study/JOL,"Study Phase2",8000,,,-1,-1,,,,1
w10023423MH,md4xs0o1y1,Nick_Dissertation_EX2_EP,1,114,2021-09-08T15:57:16-07:00,8.1953978538513,1,Mixed_Stim.csv,READVersionA.csv,"Read Mixed A","Read Mixed A",MAIN,SCAR,Study2,U,175,75,STUDY,8,8,,Study/JOL,"Study Phase2",8001,,,-1,-1,,,,1
w10023423MH,md4xs0o1y1,Nick_Dissertation_EX2_EP,1,115,2021-09-08T15:57:25-07:00,8.1966781616211,1,Mixed_Stim.csv,READVersionA.csv,"Read Mixed A","Read Mixed A",BOTH,OUNCE,Study2,U,172,62,STUDY,8,8,,Study/JOL,"Study Phase2",8001,,,-1,-1,,,,1
w10023423MH,md4xs0o1y1,Nick_Dissertation_EX2_EP,1,116,2021-09-08T15:57:33-07:00,8.1941640377045,1,Mixed_Stim.csv,READVersionA.csv,"Read Mixed A","Read Mixed A",LISTEN,FICTION,Study2,U,164,94,STUDY,8,8,,Study/JOL,"Study Phase2",8001,,,-1,-1,,,,1
w10023423MH,md4xs0o1y1,Nick_Dissertation_EX2_EP,1,117,2021-09-08T15:57:41-07:00,8.2332108020782,1,Mixed_Stim.csv,READVersionA.csv,"Read Mixed A","Read Mixed A",CHILL,COLD,Study2,F,114,88,STUDY,8,8,,Study/JOL,"Study Phase2",8002,,,-1,-1,,,,1
w10023423MH,md4xs0o1y1,Nick_Dissertation_EX2_EP,1,118,2021-09-08T15:57:49-07:00,8.1951401233673,1,Mixed_Stim.csv,READVersionA.csv,"Read Mixed A","Read Mixed A",ADJOURN,END,Study2,F,101,77,STUDY,8,8,,Study/JOL,"Study Phase2",8002,,,-1,-1,,,,1
w10023423MH,md4xs0o1y1,Nick_Dissertation_EX2_EP,1,119,2021-09-08T15:57:57-07:00,8.1983258724213,1,Mixed_Stim.csv,READVersionA.csv,"Read Mixed A","Read Mixed A",CHERRY,RED,Study2,F,104,66,STUDY,8,8,,Study/JOL,"Study Phase2",8002,,,-1,-1,,,,1
w10023423MH,md4xs0o1y1,Nick_Dissertation_EX2_EP,1,120,2021-09-08T15:58:06-07:00,8.1966671943665,1,Mixed_Stim.csv,READVersionA.csv,"Read Mixed A","Read Mixed A",LEASE,TOIL,Study2,U,170,68,STUDY,8,8,,Study/JOL,"Study Phase2",8001,,,-1,-1,,,,1
w10023423MH,md4xs0o1y1,Nick_Dissertation_EX2_EP,1,121,2021-09-08T15:58:14-07:00,8.196252822876,1,Mixed_Stim.csv,READVersionA.csv,"Read Mixed A","Read Mixed A",NAME,HATE,Study2,U,167,64,STUDY,8,8,,Study/JOL,"Study Phase2",8000,,,-1,-1,,,,1
w10023423MH,md4xs0o1y1,Nick_Dissertation_EX2_EP,1,122,2021-09-08T15:58:22-07:00,8.2260911464691,1,Mixed_Stim.csv,READVersionA.csv,"Read Mixed A","Read Mixed A",DINE,EAT,Study2,F,111,81,STUDY,8,8,,Study/JOL,"Study Phase2",8003,,,-1,-1,,,,1
w10023423MH,md4xs0o1y1,Nick_Dissertation_EX2_EP,1,123,2021-09-08T15:58:30-07:00,8.1945700645447,1,Mixed_Stim.csv,READVersionA.csv,"Read Mixed A","Read Mixed A",Shell,SHAKE,Study2,U,163,70,STUDY,8,8,,Study/JOL,"Study Phase2",8002,,,-1,-1,,,,1
w10023423MH,md4xs0o1y1,Nick_Dissertation_EX2_EP,1,124,2021-09-08T15:58:38-07:00,8.1947779655457,1,Mixed_Stim.csv,READVersionA.csv,"Read Mixed A","Read Mixed A",SHEARS,SCISSORS,Study2,F,112,91,STUDY,8,8,,Study/JOL,"Study Phase2",8001,,,-1,-1,,,,1
w10023423MH,md4xs0o1y1,Nick_Dissertation_EX2_EP,1,125,2021-09-08T15:58:47-07:00,8.1941778659821,1,Mixed_Stim.csv,READVersionA.csv,"Read Mixed A","Read Mixed A",INCENSE,SMELL,Study2,F,110,84,STUDY,8,8,,Study/JOL,"Study Phase2",8000,,,-1,-1,,,,1
w10023423MH,md4xs0o1y1,Nick_Dissertation_EX2_EP,1,126,2021-09-08T15:58:55-07:00,8.1957609653473,1,Mixed_Stim.csv,READVersionA.csv,"Read Mixed A","Read Mixed A",SCALP,HEAD,Study2,F,105,90,STUDY,8,8,,Study/JOL,"Study Phase2",8001,,,-1,-1,,,,1
w10023423MH,md4xs0o1y1,Nick_Dissertation_EX2_EP,1,127,2021-09-08T15:59:03-07:00,8.3977069854736,1,Mixed_Stim.csv,READVersionA.csv,"Read Mixed A","Read Mixed A",EXTENSION,LONG,Study2,F,96,76,STUDY,8,8,,Study/JOL,"Study Phase2",8000,,,-1,-1,,,,1
w10023423MH,md4xs0o1y1,Nick_Dissertation_EX2_EP,1,128,2021-09-08T15:59:11-07:00,8.2021970748901,1,Mixed_Stim.csv,READVersionA.csv,"Read Mixed A","Read Mixed A",MIRROR,CHILDREN,Study2,U,174,87,STUDY,8,8,,Study/JOL,"Study Phase2",8001,,,-1,-1,,,,1
w10023423MH,md4xs0o1y1,Nick_Dissertation_EX2_EP,1,129,2021-09-08T15:59:20-07:00,8.1926131248474,1,Mixed_Stim.csv,READVersionA.csv,"Read Mixed A","Read Mixed A",DETECTIVE,MYSTERY,Study2,F,100,82,STUDY,8,8,,Study/JOL,"Study Phase2",8001,,,-1,-1,,,,1
w10023423MH,md4xs0o1y1,Nick_Dissertation_EX2_EP,1,130,2021-09-08T15:59:28-07:00,8.1920228004456,1,Mixed_Stim.csv,READVersionA.csv,"Read Mixed A","Read Mixed A",VEHICLE,CHARM,Study2,U,160,79,STUDY,8,8,,Study/JOL,"Study Phase2",8001,,,-1,-1,,,,1
w10023423MH,md4xs0o1y1,Nick_Dissertation_EX2_EP,1,131,2021-09-08T15:59:36-07:00,8.1913721561432,1,Mixed_Stim.csv,READVersionA.csv,"Read Mixed A","Read Mixed A",GIVE,STEAK,Study2,U,158,57,STUDY,8,8,,Study/JOL,"Study Phase2",8000,,,-1,-1,,,,1
w10023423MH,md4xs0o1y1,Nick_Dissertation_EX2_EP,1,132,2021-09-08T15:59:44-07:00,8.2385108470917,1,Mixed_Stim.csv,READVersionA.csv,"Read Mixed A","Read Mixed A",MAZE,ELECTION,Study2,U,159,86,STUDY,8,8,,Study/JOL,"Study Phase2",8000,,,-1,-1,,,,1
w10023423MH,md4xs0o1y1,Nick_Dissertation_EX2_EP,1,133,2021-09-08T15:59:52-07:00,8.1977591514587,1,Mixed_Stim.csv,READVersionA.csv,"Read Mixed A","Read Mixed A",JUSTICE,MAROON,Study2,U,156,73,STUDY,8,8,,Study/JOL,"Study Phase2",8002,,,-1,-1,,,,1
w10023423MH,md4xs0o1y1,Nick_Dissertation_EX2_EP,1,134,2021-09-08T16:00:01-07:00,8.2463848590851,1,Mixed_Stim.csv,READVersionA.csv,"Read Mixed A","Read Mixed A",KEYS,JOKE,Study2,U,165,93,STUDY,8,8,,Study/JOL,"Study Phase2",8000,,,-1,-1,,,,1
w10023423MH,md4xs0o1y1,Nick_Dissertation_EX2_EP,1,135,2021-09-08T16:00:09-07:00,8.2061669826508,1,Mixed_Stim.csv,READVersionA.csv,"Read Mixed A","Read Mixed A",AFFECTION,LOVE,Study2,F,115,92,STUDY,8,8,,Study/JOL,"Study Phase2",8000,,,-1,-1,,,,1
w10023423MH,md4xs0o1y1,Nick_Dissertation_EX2_EP,1,136,2021-09-08T16:00:17-07:00,8.2029759883881,1,Mixed_Stim.csv,READVersionA.csv,"Read Mixed A","Read Mixed A",CLUE,GAME,Study2,F,97,61,STUDY,8,8,,Study/JOL,"Study Phase2",8001,,,-1,-1,,,,1
w10023423MH,md4xs0o1y1,Nick_Dissertation_EX2_EP,1,137,2021-09-08T16:00:25-07:00,8.1979432106018,1,Mixed_Stim.csv,READVersionA.csv,"Read Mixed A","Read Mixed A",SHOELACE,TIE,Study2,F,99,78,STUDY,8,8,,Study/JOL,"Study Phase2",8001,,,-1,-1,,,,1
w10023423MH,md4xs0o1y1,Nick_Dissertation_EX2_EP,1,138,2021-09-08T16:00:34-07:00,8.1959369182587,1,Mixed_Stim.csv,READVersionA.csv,"Read Mixed A","Read Mixed A",TEMPERATURE,Morning,Study2,U,173,59,STUDY,8,8,,Study/JOL,"Study Phase2",8002,,,-1,-1,,,,1
w10023423MH,md4xs0o1y1,Nick_Dissertation_EX2_EP,1,139,2021-09-08T16:00:42-07:00,8.196398973465,1,Mixed_Stim.csv,READVersionA.csv,"Read Mixed A","Read Mixed A",CHOP,CUT,Study2,F,107,60,STUDY,8,8,,Study/JOL,"Study Phase2",8003,,,-1,-1,,,,1
w10023423MH,md4xs0o1y1,Nick_Dissertation_EX2_EP,1,140,2021-09-08T16:00:50-07:00,8.1951189041138,1,Mixed_Stim.csv,READVersionA.csv,"Read Mixed A","Read Mixed A",TEMPERATURE,Morning,Study2,U,173,59,STUDY,8,8,,Study/JOL,"Study Phase2",8000,,,-1,-1,,,,1
w10023423MH,md4xs0o1y1,Nick_Dissertation_EX2_EP,1,141,2021-09-08T16:00:58-07:00,8.1956911087036,1,Mixed_Stim.csv,READVersionA.csv,"Read Mixed A","Read Mixed A",OCTOBER,SPOOKY,BUFFER4,Buffer,180,101,STUDY,8,8,,Study/JOL,BUFFER4,8000,,,-1,-1,,,,1
w10023423MH,md4xs0o1y1,Nick_Dissertation_EX2_EP,1,142,2021-09-08T16:01:06-07:00,8.2419910430908,1,Mixed_Stim.csv,READVersionA.csv,"Read Mixed A","Read Mixed A",TOOL,SHED,BUFFER4,Buffer,178,100,STUDY,8,8,,Study/JOL,BUFFER4,8000,,,-1,-1,,,,1
w10023423MH,md4xs0o1y1,Nick_Dissertation_EX2_EP,1,143,2021-09-08T16:01:15-07:00,8.2024478912354,1,Mixed_Stim.csv,READVersionA.csv,"Read Mixed A","Read Mixed A",SPRING,MARCH,BUFFER4,Buffer,179,99,STUDY,8,8,,Study/JOL,BUFFER4,8002,,,-1,-1,,,,1
w10023423MH,md4xs0o1y1,Nick_Dissertation_EX2_EP,1,144,2021-09-08T16:01:23-07:00,8.2009611129761,1,Mixed_Stim.csv,READVersionA.csv,"Read Mixed A","Read Mixed A",DAYS,WEAKS,BUFFER4,Buffer,176,98,STUDY,8,8,,Study/JOL,BUFFER4,8002,,,-1,-1,,,,1
w10023423MH,md4xs0o1y1,Nick_Dissertation_EX2_EP,1,145,2021-09-08T16:01:31-07:00,8.1962280273438,1,Mixed_Stim.csv,READVersionA.csv,"Read Mixed A","Read Mixed A",MONTH,YEAR,BUFFER4,Buffer,177,97,STUDY,8,8,,Study/JOL,BUFFER4,8001,,,-1,-1,,,,1
w10023423MH,md4xs0o1y1,Nick_Dissertation_EX2_EP,1,146,2021-09-08T16:01:34-07:00,3.2792768478394,1,Mixed_Stim.csv,READVersionA.csv,"Read Mixed A","Read Mixed A",,,,,,0,Instruct,User,-,"You have completed this section. Please press Enter.",Filler_Instruction,Instruct5,3071,,,-1,-1,,,,1
w10023423MH,md4xs0o1y1,Nick_Dissertation_EX2_EP,1,147,2021-09-08T16:03:35-07:00,120.36703515053,1,Mixed_Stim.csv,READVersionA.csv,"Read Mixed A","Read Mixed A",,,,,,0,FreeRecall,120,120,"Please list the 50 US states in reverse alphabetical order (z - a). The task will automatically advance to the next screen after two minutes.",,Filler2,120001,"Wyoming Wisconsin West Virginia Washington Virginia Vermont Utah Texas Tennessee South Dakota South Carolina Rhode Island Pennsylvania Oregon Oklahoma Ohio North Dakota North Carolina New York New Mexico New Jersey New Hampshire Nevada Nebraska Montana Missouri Mississippi Minnesota Michigan Massachusetts M",0,23166,119989,0,0,,1
w10023423MH,md4xs0o1y1,Nick_Dissertation_EX2_EP,1,148,2021-09-08T16:03:48-07:00,13.162492990494,1,Mixed_Stim.csv,READVersionA.csv,"Read Mixed A","Read Mixed A",,,,,,0,Instruct,-,10,"You will now be presented with the first word from each of the previously studied item pairs. Please type the missing word. If you do not know the word, you may guess or press Enter to skip forward to the next pair.",,Instruct6,12966,,,-1,-1,,,,1
w10023423MH,md4xs0o1y1,Nick_Dissertation_EX2_EP,1,149,2021-09-08T16:03:52-07:00,4.6269509792328,1,Mixed_Stim.csv,READVersionA.csv,"Read Mixed A","Read Mixed A",TEMPERATURE,Morning,Study2,U,173,59,Test,User,-,,Recall,Recall2,4415,Morning,100,3574,4314,1,1,,1
w10023423MH,md4xs0o1y1,Nick_Dissertation_EX2_EP,1,150,2021-09-08T16:03:57-07:00,4.695641040802,1,Mixed_Stim.csv,READVersionA.csv,"Read Mixed A","Read Mixed A",DETECTIVE,MYSTERY,Study2,F,100,82,Test,User,-,,Recall,Recall2,4379,MYSTERY,100,2949,4185,1,1,,1
w10023423MH,md4xs0o1y1,Nick_Dissertation_EX2_EP,1,151,2021-09-08T16:04:06-07:00,9.1581490039825,1,Mixed_Stim.csv,READVersionA.csv,"Read Mixed A","Read Mixed A",CRACKLE,ABLE,Study2,U,162,67,Test,User,-,,Recall,Recall2,8962,able,100,8442,8832,1,1,,1
w10023423MH,md4xs0o1y1,Nick_Dissertation_EX2_EP,1,152,2021-09-08T16:04:12-07:00,5.4672389030457,1,Mixed_Stim.csv,READVersionA.csv,"Read Mixed A","Read Mixed A",LEASE,TOIL,Study2,U,170,68,Test,User,-,,Recall,Recall2,5277,toil,100,4189,4988,1,1,,1
w10023423MH,md4xs0o1y1,Nick_Dissertation_EX2_EP,1,153,2021-09-08T16:04:29-07:00,17.598333120346,1,Mixed_Stim.csv,READVersionA.csv,"Read Mixed A","Read Mixed A",MAIN,SCAR,Study2,U,175,75,Test,User,-,,Recall,Recall2,17403,scar,100,16754,17245,1,1,,1
w10023423MH,md4xs0o1y1,Nick_Dissertation_EX2_EP,1,154,2021-09-08T16:04:33-07:00,3.4941129684448,1,Mixed_Stim.csv,READVersionA.csv,"Read Mixed A","Read Mixed A",KEYS,JOKE,Study2,U,165,93,Test,User,-,,Recall,Recall2,3297,Joke,100,2731,3155,1,1,,1
w10023423MH,md4xs0o1y1,Nick_Dissertation_EX2_EP,1,155,2021-09-08T16:04:38-07:00,5.2558410167694,1,Mixed_Stim.csv,READVersionA.csv,"Read Mixed A","Read Mixed A",SHEARS,SCISSORS,Study2,F,112,91,Test,User,-,,Recall,Recall2,5064,scissors,100,3056,4951,1,1,,1
w10023423MH,md4xs0o1y1,Nick_Dissertation_EX2_EP,1,156,2021-09-08T16:04:41-07:00,2.6219840049744,1,Mixed_Stim.csv,READVersionA.csv,"Read Mixed A","Read Mixed A",INCENSE,SMELL,Study2,F,110,84,Test,User,-,,Recall,Recall2,2432,smell,100,1771,2243,1,1,,1
w10023423MH,md4xs0o1y1,Nick_Dissertation_EX2_EP,1,157,2021-09-08T16:04:43-07:00,2.207995891571,1,Mixed_Stim.csv,READVersionA.csv,"Read Mixed A","Read Mixed A",GIVE,STEAK,Study2,U,158,57,Test,User,-,,Recall,Recall2,2009,steak,100,1339,1829,1,1,,1
w10023423MH,md4xs0o1y1,Nick_Dissertation_EX2_EP,1,158,2021-09-08T16:04:48-07:00,4.6831789016724,1,Mixed_Stim.csv,READVersionA.csv,"Read Mixed A","Read Mixed A",MULE,DONKEY,Study2,F,108,96,Test,User,-,,Recall,Recall2,4491,donkey,100,3291,4315,1,1,,1
w10023423MH,md4xs0o1y1,Nick_Dissertation_EX2_EP,1,159,2021-09-08T16:05:01-07:00,13.819331169128,1,Mixed_Stim.csv,READVersionA.csv,"Read Mixed A","Read Mixed A",LOAN,SIGN,Study2,U,171,69,Test,User,-,,Recall,Recall2,13624,sign,100,12716,13187,1,1,,1
w10023423MH,md4xs0o1y1,Nick_Dissertation_EX2_EP,1,160,2021-09-08T16:05:06-07:00,4.9705078601837,1,Mixed_Stim.csv,READVersionA.csv,"Read Mixed A","Read Mixed A",FURRY,DOG,Study2,F,102,74,Test,User,-,,Recall,Recall2,4220,dog,100,1488,1707,1,1,,1
w10023423MH,md4xs0o1y1,Nick_Dissertation_EX2_EP,1,161,2021-09-08T16:05:09-07:00,2.523609161377,1,Mixed_Stim.csv,READVersionA.csv,"Read Mixed A","Read Mixed A",NAME,HATE,Study2,U,167,64,Test,User,-,,Recall,Recall2,2338,hate,100,1850,2175,1,1,,1
w10023423MH,md4xs0o1y1,Nick_Dissertation_EX2_EP,1,162,2021-09-08T16:05:19-07:00,9.9653918743134,1,Mixed_Stim.csv,READVersionA.csv,"Read Mixed A","Read Mixed A",CHILL,COLD,Study2,F,114,88,Test,User,-,,Recall,Recall2,9773,cold,100,2274,9673,1,1,,1
w10023423MH,md4xs0o1y1,Nick_Dissertation_EX2_EP,1,163,2021-09-08T16:05:23-07:00,4.6490550041199,1,Mixed_Stim.csv,READVersionA.csv,"Read Mixed A","Read Mixed A",FUZZY,BANG,Study2,U,168,80,Test,User,-,,Recall,Recall2,4439,bang,100,1491,3876,1,1,,1
w10023423MH,md4xs0o1y1,Nick_Dissertation_EX2_EP,1,164,2021-09-08T16:05:35-07:00,11.135072946548,1,Mixed_Stim.csv,READVersionA.csv,"Read Mixed A","Read Mixed A",JUSTICE,MAROON,Study2,U,156,73,Test,User,-,,Recall,Recall2,10941,maroon,100,10001,10725,1,1,,1
w10023423MH,md4xs0o1y1,Nick_Dissertation_EX2_EP,1,165,2021-09-08T16:05:55-07:00,20.425794124603,1,Mixed_Stim.csv,READVersionA.csv,"Read Mixed A","Read Mixed A",BOTH,OUNCE,Study2,U,172,62,Test,User,-,,Recall,Recall2,20230,ounce,100,19373,20086,1,1,,1
w10023423MH,md4xs0o1y1,Nick_Dissertation_EX2_EP,1,166,2021-09-08T16:05:58-07:00,2.8439970016479,1,Mixed_Stim.csv,READVersionA.csv,"Read Mixed A","Read Mixed A",DINE,EAT,Study2,F,111,81,Test,User,-,,Recall,Recall2,2638,eat,100,2214,2470,1,1,,1
w10023423MH,md4xs0o1y1,Nick_Dissertation_EX2_EP,1,167,2021-09-08T16:06:14-07:00,15.784054040909,1,Mixed_Stim.csv,READVersionA.csv,"Read Mixed A","Read Mixed A",CLUE,GAME,Study2,F,97,61,Test,User,-,,Recall,Recall2,15594,game,100,15147,15468,1,1,,1
w10023423MH,md4xs0o1y1,Nick_Dissertation_EX2_EP,1,168,2021-09-08T16:06:19-07:00,5.1691648960114,1,Mixed_Stim.csv,READVersionA.csv,"Read Mixed A","Read Mixed A",MIRROR,CHILDREN,Study2,U,174,87,Test,User,-,,Recall,Recall2,4979,children,100,3933,4815,1,1,,1
w10023423MH,md4xs0o1y1,Nick_Dissertation_EX2_EP,1,169,2021-09-08T16:06:28-07:00,9.0833990573883,1,Mixed_Stim.csv,READVersionA.csv,"Read Mixed A","Read Mixed A",DOCUMENT,PAPER,Study2,F,109,71,Test,User,-,,Recall,Recall2,8879,paper,100,8285,8753,1,1,,1
w10023423MH,md4xs0o1y1,Nick_Dissertation_EX2_EP,1,170,2021-09-08T16:06:33-07:00,5.3084318637848,1,Mixed_Stim.csv,READVersionA.csv,"Read Mixed A","Read Mixed A",FEUD,FIGHT,Study2,F,113,72,Test,User,-,,Recall,Recall2,5090,fight,100,4538,4967,1,1,,1
w10023423MH,md4xs0o1y1,Nick_Dissertation_EX2_EP,1,171,2021-09-08T16:06:36-07:00,2.6906790733337,1,Mixed_Stim.csv,READVersionA.csv,"Read Mixed A","Read Mixed A",CACTUS,PLANT,Study2,F,98,95,Test,User,-,,Recall,Recall2,2487,plant,100,1690,2388,1,1,,1
w10023423MH,md4xs0o1y1,Nick_Dissertation_EX2_EP,1,172,2021-09-08T16:06:38-07:00,1.7724809646606,1,Mixed_Stim.csv,READVersionA.csv,"Read Mixed A","Read Mixed A",SHOELACE,TIE,Study2,F,99,78,Test,User,-,,Recall,Recall2,1572,tie,100,1246,1401,1,1,,1
w10023423MH,md4xs0o1y1,Nick_Dissertation_EX2_EP,1,173,2021-09-08T16:06:43-07:00,5.1681160926819,1,Mixed_Stim.csv,READVersionA.csv,"Read Mixed A","Read Mixed A",MAZE,ELECTION,Study2,U,159,86,Test,User,-,,Recall,Recall2,4970,election,100,3711,4831,1,1,,1
w10023423MH,md4xs0o1y1,Nick_Dissertation_EX2_EP,1,174,2021-09-08T16:06:57-07:00,14.498334884644,1,Mixed_Stim.csv,READVersionA.csv,"Read Mixed A","Read Mixed A",CHERRY,RED,Study2,F,104,66,Test,User,-,,Recall,Recall2,14297,red,100,13877,14177,1,1,,1
w10023423MH,md4xs0o1y1,Nick_Dissertation_EX2_EP,1,175,2021-09-08T16:07:00-07:00,2.340763092041,1,Mixed_Stim.csv,READVersionA.csv,"Read Mixed A","Read Mixed A",MOAT,CLEAR,Study2,U,169,63,Test,User,-,,Recall,Recall2,2144,clear,100,1581,2033,1,1,,1
w10023423MH,md4xs0o1y1,Nick_Dissertation_EX2_EP,1,176,2021-09-08T16:07:04-07:00,4.4520928859711,1,Mixed_Stim.csv,READVersionA.csv,"Read Mixed A","Read Mixed A",EXTENSION,LONG,Study2,F,96,76,Test,User,-,,Recall,Recall2,4262,long,100,3603,4059,1,1,,1
w10023423MH,md4xs0o1y1,Nick_Dissertation_EX2_EP,1,177,2021-09-08T16:07:11-07:00,6.4853420257568,1,Mixed_Stim.csv,READVersionA.csv,"Read Mixed A","Read Mixed A",STRETCH,CLOTH,Study2,U,157,85,Test,User,-,,Recall,Recall2,6271,cloth,100,5575,6123,1,1,,1
w10023423MH,md4xs0o1y1,Nick_Dissertation_EX2_EP,1,178,2021-09-08T16:07:44-07:00,32.952542066574,1,Mixed_Stim.csv,READVersionA.csv,"Read Mixed A","Read Mixed A",CAKE,CLOTHES,Study2,U,166,65,Test,User,-,,Recall,Recall2,32755,clothes,100,31948,32631,1,1,,1
w10023423MH,md4xs0o1y1,Nick_Dissertation_EX2_EP,1,179,2021-09-08T16:07:57-07:00,12.933375120163,1,Mixed_Stim.csv,READVersionA.csv,"Read Mixed A","Read Mixed A",LISTEN,FICTION,Study2,U,164,94,Test,User,-,,Recall,Recall2,12716,fiction,100,11124,12570,1,1,,1
w10023423MH,md4xs0o1y1,Nick_Dissertation_EX2_EP,1,180,2021-09-08T16:08:01-07:00,4.1116809844971,1,Mixed_Stim.csv,READVersionA.csv,"Read Mixed A","Read Mixed A",TEMPERATURE,Morning,Study2,U,173,59,Test,User,-,,Recall,Recall2,3919,Morning,100,3076,3818,1,1,,1
w10023423MH,md4xs0o1y1,Nick_Dissertation_EX2_EP,1,181,2021-09-08T16:08:03-07:00,2.8376469612122,1,Mixed_Stim.csv,READVersionA.csv,"Read Mixed A","Read Mixed A",SCALP,HEAD,Study2,F,105,90,Test,User,-,,Recall,Recall2,2643,head,100,2179,2460,1,1,,1
w10023423MH,md4xs0o1y1,Nick_Dissertation_EX2_EP,1,182,2021-09-08T16:08:05-07:00,1.7865710258484,1,Mixed_Stim.csv,READVersionA.csv,"Read Mixed A","Read Mixed A",ADJOURN,END,Study2,F,101,77,Test,User,-,,Recall,Recall2,1568,end,100,1219,1459,1,1,,1
w10023423MH,md4xs0o1y1,Nick_Dissertation_EX2_EP,1,183,2021-09-08T16:08:07-07:00,1.885773897171,1,Mixed_Stim.csv,READVersionA.csv,"Read Mixed A","Read Mixed A",HORNET,STING,Study1,F,11,23,Test,User,-,,Recall,Recall2,1687,sting,100,1094,1601,1,1,,1
w10023423MH,md4xs0o1y1,Nick_Dissertation_EX2_EP,1,184,2021-09-08T16:08:11-07:00,3.5382130146027,1,Mixed_Stim.csv,READVersionA.csv,"Read Mixed A","Read Mixed A",DRIVER,CAR,Study2,F,106,89,Test,User,-,,Recall,Recall2,3334,car,100,2925,3205,1,1,,1
w10023423MH,md4xs0o1y1,Nick_Dissertation_EX2_EP,1,185,2021-09-08T16:08:20-07:00,9.658793926239,1,Mixed_Stim.csv,READVersionA.csv,"Read Mixed A","Read Mixed A",CHOP,CUT,Study2,F,107,60,Test,User,-,,Recall,Recall2,9464,cut,100,8971,9324,1,1,,1
w10023423MH,md4xs0o1y1,Nick_Dissertation_EX2_EP,1,186,2021-09-08T16:08:23-07:00,2.9566080570221,1,Mixed_Stim.csv,READVersionA.csv,"Read Mixed A","Read Mixed A",AFFECTION,LOVE,Study2,F,115,92,Test,User,-,,Recall,Recall2,2769,love,100,2183,2652,1,1,,1
w10023423MH,md4xs0o1y1,Nick_Dissertation_EX2_EP,1,187,2021-09-08T16:08:28-07:00,4.6127750873566,1,Mixed_Stim.csv,READVersionA.csv,"Read Mixed A","Read Mixed A",Shell,SHAKE,Study2,U,163,70,Test,User,-,,Recall,Recall2,4413,shake,100,3952,4296,1,1,,1
w10023423MH,md4xs0o1y1,Nick_Dissertation_EX2_EP,1,188,2021-09-08T16:08:44-07:00,16.043493032455,1,Mixed_Stim.csv,READVersionA.csv,"Read Mixed A","Read Mixed A",VEHICLE,CHARM,Study2,U,160,79,Test,User,-,,Recall,Recall2,15848,charn,80,13954,15656,0,1,,1
w10023423MH,md4xs0o1y1,Nick_Dissertation_EX2_EP,1,189,2021-09-08T16:08:46-07:00,1.685555934906,1,Mixed_Stim.csv,READVersionA.csv,"Read Mixed A","Read Mixed A",,,,,,0,Instruct,User,-,"You have completed this section. Please press Enter.",,Instruct7,1492,,,-1,-1,,,,1
w10023423MH,md4xs0o1y1,Nick_Dissertation_EX2_EP,1,190,2021-09-08T16:08:50-07:00,4.1779599189758,1,Mixed_Stim.csv,READVersionA.csv,"Read Mixed A","Read Mixed A",,,,,,0,Instruct,User,-,"The following screen will ask you a few questions abour your experience today. You must complete these questions to receive credit.",,Instruct8,3996,,,-1,-1,,,,1
