Username,ID,ExperimentName,Session,Trial,Date,TimeDif,"Condition Number","Stimuli File","Order File","Condition Description","Condition Notes",Stimuli*Cue,Stimuli*Answer,Stimuli*Shuffle,"Stimuli*Stimuli Notes",Stimuli*Value,Procedure*Item,"Procedure*Trial Type","Procedure*Max Time","Procedure*Min Time",Procedure*Text,"Procedure*Procedure Notes",Procedure*Shuffle,Response*RT,Response*Response,Response*Accuracy,Response*RTfirst,Response*RTlast,Response*strictAcc,Response*lenientAcc,Response*focus,Response*Focus
m20308741,vrihsvcpzu,Nick_Dissertation_EX2_EP_MSU_TEXAS,1,1,2022-10-22T17:28:24+00:00,12.852261066437,5,Pure_Unrelated.csv,READVersionA.csv,"Read Pure U A","Read Pure U A",,,,,,0,Instruct,-,10,"Please study each of the following word pairs. Remember that your memory will be tested! Each pair will be displayed on the computer screen and will automatically advance to the next pair. Press ENTER when you are ready to begin.",Initial_Instruct,Instruct1,12579,,,-1,-1,,,,1
m20308741,vrihsvcpzu,Nick_Dissertation_EX2_EP_MSU_TEXAS,1,2,2022-10-22T17:28:32+00:00,8.328125,5,Pure_Unrelated.csv,READVersionA.csv,"Read Pure U A","Read Pure U A",SPACE,JAM,BUFFER1,Buffer,5,2,STUDY,8,8,,Study/JOL,BUFFER,8001,,,-1,-1,,,,1
m20308741,vrihsvcpzu,Nick_Dissertation_EX2_EP_MSU_TEXAS,1,3,2022-10-22T17:28:40+00:00,8.1650998592377,5,Pure_Unrelated.csv,READVersionA.csv,"Read Pure U A","Read Pure U A",TREES,GREEN,BUFFER1,Buffer,1,4,STUDY,8,8,,Study/JOL,BUFFER,8001,,,-1,-1,,,,1
m20308741,vrihsvcpzu,Nick_Dissertation_EX2_EP_MSU_TEXAS,1,4,2022-10-22T17:28:48+00:00,8.1623170375824,5,Pure_Unrelated.csv,READVersionA.csv,"Read Pure U A","Read Pure U A",PEANUT,BUTTER,BUFFER1,Buffer,3,3,STUDY,8,8,,Study/JOL,BUFFER,8001,,,-1,-1,,,,1
m20308741,vrihsvcpzu,Nick_Dissertation_EX2_EP_MSU_TEXAS,1,5,2022-10-22T17:28:56+00:00,8.1669509410858,5,Pure_Unrelated.csv,READVersionA.csv,"Read Pure U A","Read Pure U A",BASEBALL,CATCHER,BUFFER1,Buffer,2,6,STUDY,8,8,,Study/JOL,BUFFER,8001,,,-1,-1,,,,1
m20308741,vrihsvcpzu,Nick_Dissertation_EX2_EP_MSU_TEXAS,1,6,2022-10-22T17:29:05+00:00,8.1599910259247,5,Pure_Unrelated.csv,READVersionA.csv,"Read Pure U A","Read Pure U A",SCARE,HIDE,BUFFER1,Buffer,4,5,STUDY,8,8,,Study/JOL,BUFFER,8001,,,-1,-1,,,,1
m20308741,vrihsvcpzu,Nick_Dissertation_EX2_EP_MSU_TEXAS,1,7,2022-10-22T17:29:13+00:00,8.1675550937653,5,Pure_Unrelated.csv,READVersionA.csv,"Read Pure U A","Read Pure U A",PARCEL,THROAT,Study1,U,67,44,STUDY,8,8,,Study/JOL,"Study Phase",8000,,,-1,-1,,,,1
m20308741,vrihsvcpzu,Nick_Dissertation_EX2_EP_MSU_TEXAS,1,8,2022-10-22T17:29:21+00:00,8.1654000282288,5,Pure_Unrelated.csv,READVersionA.csv,"Read Pure U A","Read Pure U A",ROSE,NEGLECT,Study1,U,82,39,STUDY,8,8,,Study/JOL,"Study Phase",8001,,,-1,-1,,,,1
m20308741,vrihsvcpzu,Nick_Dissertation_EX2_EP_MSU_TEXAS,1,9,2022-10-22T17:29:29+00:00,8.1626510620117,5,Pure_Unrelated.csv,READVersionA.csv,"Read Pure U A","Read Pure U A",NUMBER,HARD,Study1,U,78,36,STUDY,8,8,,Study/JOL,"Study Phase",8003,,,-1,-1,,,,1
m20308741,vrihsvcpzu,Nick_Dissertation_EX2_EP_MSU_TEXAS,1,10,2022-10-22T17:29:37+00:00,8.1636869907379,5,Pure_Unrelated.csv,READVersionA.csv,"Read Pure U A","Read Pure U A",LEASE,TOIL,Study1,U,20,10,STUDY,8,8,,Study/JOL,"Study Phase",8001,,,-1,-1,,,,1
m20308741,vrihsvcpzu,Nick_Dissertation_EX2_EP_MSU_TEXAS,1,11,2022-10-22T17:29:45+00:00,8.1589589118958,5,Pure_Unrelated.csv,READVersionA.csv,"Read Pure U A","Read Pure U A",WARN,SEA,Study1,U,80,23,STUDY,8,8,,Study/JOL,"Study Phase",8000,,,-1,-1,,,,1
m20308741,vrihsvcpzu,Nick_Dissertation_EX2_EP_MSU_TEXAS,1,12,2022-10-22T17:29:54+00:00,8.1657030582428,5,Pure_Unrelated.csv,READVersionA.csv,"Read Pure U A","Read Pure U A",INFLATE,DISGUST,Study1,U,76,33,STUDY,8,8,,Study/JOL,"Study Phase",8000,,,-1,-1,,,,1
m20308741,vrihsvcpzu,Nick_Dissertation_EX2_EP_MSU_TEXAS,1,13,2022-10-22T17:30:02+00:00,8.1623890399933,5,Pure_Unrelated.csv,READVersionA.csv,"Read Pure U A","Read Pure U A",PET,MOON,Study1,U,74,15,STUDY,8,8,,Study/JOL,"Study Phase",8001,,,-1,-1,,,,1
m20308741,vrihsvcpzu,Nick_Dissertation_EX2_EP_MSU_TEXAS,1,14,2022-10-22T17:30:10+00:00,8.1704018115997,5,Pure_Unrelated.csv,READVersionA.csv,"Read Pure U A","Read Pure U A",MOAT,CLEAR,Study1,U,19,18,STUDY,8,8,,Study/JOL,"Study Phase",8000,,,-1,-1,,,,1
m20308741,vrihsvcpzu,Nick_Dissertation_EX2_EP_MSU_TEXAS,1,15,2022-10-22T17:30:18+00:00,8.1778540611267,5,Pure_Unrelated.csv,READVersionA.csv,"Read Pure U A","Read Pure U A",DEGREE,CHAIR,Study1,U,71,42,STUDY,8,8,,Study/JOL,"Study Phase",8002,,,-1,-1,,,,1
m20308741,vrihsvcpzu,Nick_Dissertation_EX2_EP_MSU_TEXAS,1,16,2022-10-22T17:30:26+00:00,8.1713280677795,5,Pure_Unrelated.csv,READVersionA.csv,"Read Pure U A","Read Pure U A",THICK,CONTEST,Study1,U,73,20,STUDY,8,8,,Study/JOL,"Study Phase",8003,,,-1,-1,,,,1
m20308741,vrihsvcpzu,Nick_Dissertation_EX2_EP_MSU_TEXAS,1,17,2022-10-22T17:30:34+00:00,8.1563458442688,5,Pure_Unrelated.csv,READVersionA.csv,"Read Pure U A","Read Pure U A",DIFFICULT,POOR,Study1,U,81,40,STUDY,8,8,,Study/JOL,"Study Phase",8001,,,-1,-1,,,,1
m20308741,vrihsvcpzu,Nick_Dissertation_EX2_EP_MSU_TEXAS,1,18,2022-10-22T17:30:43+00:00,8.1967232227325,5,Pure_Unrelated.csv,READVersionA.csv,"Read Pure U A","Read Pure U A",GRIND,STAND,Study1,U,85,26,STUDY,8,8,,Study/JOL,"Study Phase",8001,,,-1,-1,,,,1
m20308741,vrihsvcpzu,Nick_Dissertation_EX2_EP_MSU_TEXAS,1,19,2022-10-22T17:30:51+00:00,8.1541268825531,5,Pure_Unrelated.csv,READVersionA.csv,"Read Pure U A","Read Pure U A",MIRROR,CHILDREN,Study1,U,24,38,STUDY,8,8,,Study/JOL,"Study Phase",8001,,,-1,-1,,,,1
m20308741,vrihsvcpzu,Nick_Dissertation_EX2_EP_MSU_TEXAS,1,20,2022-10-22T17:30:59+00:00,8.1700360774994,5,Pure_Unrelated.csv,READVersionA.csv,"Read Pure U A","Read Pure U A",SHELL,SHAKE,Study1,U,13,43,STUDY,8,8,,Study/JOL,"Study Phase",8001,,,-1,-1,,,,1
m20308741,vrihsvcpzu,Nick_Dissertation_EX2_EP_MSU_TEXAS,1,21,2022-10-22T17:31:07+00:00,8.1729259490967,5,Pure_Unrelated.csv,READVersionA.csv,"Read Pure U A","Read Pure U A",RIPE,VERIFY,Study1,U,83,21,STUDY,8,8,,Study/JOL,"Study Phase",8003,,,-1,-1,,,,1
m20308741,vrihsvcpzu,Nick_Dissertation_EX2_EP_MSU_TEXAS,1,22,2022-10-22T17:31:15+00:00,8.1645610332489,5,Pure_Unrelated.csv,READVersionA.csv,"Read Pure U A","Read Pure U A",RESIST,GLUE,Study1,U,69,34,STUDY,8,8,,Study/JOL,"Study Phase",8001,,,-1,-1,,,,1
m20308741,vrihsvcpzu,Nick_Dissertation_EX2_EP_MSU_TEXAS,1,23,2022-10-22T17:31:23+00:00,8.0958359241486,5,Pure_Unrelated.csv,READVersionA.csv,"Read Pure U A","Read Pure U A",STRESS,YAM,Study1,U,68,12,STUDY,8,8,,Study/JOL,"Study Phase",8000,,,-1,-1,,,,1
m20308741,vrihsvcpzu,Nick_Dissertation_EX2_EP_MSU_TEXAS,1,24,2022-10-22T17:31:32+00:00,8.1662759780884,5,Pure_Unrelated.csv,READVersionA.csv,"Read Pure U A","Read Pure U A",STRETCH,CLOTH,Study1,U,7,30,STUDY,8,8,,Study/JOL,"Study Phase",8001,,,-1,-1,,,,1
m20308741,vrihsvcpzu,Nick_Dissertation_EX2_EP_MSU_TEXAS,1,25,2022-10-22T17:31:40+00:00,8.1603469848633,5,Pure_Unrelated.csv,READVersionA.csv,"Read Pure U A","Read Pure U A",BAT,SHAKY,Study1,U,66,17,STUDY,8,8,,Study/JOL,"Study Phase",8001,,,-1,-1,,,,1
m20308741,vrihsvcpzu,Nick_Dissertation_EX2_EP_MSU_TEXAS,1,26,2022-10-22T17:31:48+00:00,8.1688170433044,5,Pure_Unrelated.csv,READVersionA.csv,"Read Pure U A","Read Pure U A",GIVE,STEAK,Study1,U,8,16,STUDY,8,8,,Study/JOL,"Study Phase",8001,,,-1,-1,,,,1
m20308741,vrihsvcpzu,Nick_Dissertation_EX2_EP_MSU_TEXAS,1,27,2022-10-22T17:31:56+00:00,8.166748046875,5,Pure_Unrelated.csv,READVersionA.csv,"Read Pure U A","Read Pure U A",BOTH,OUNCE,Study1,U,22,11,STUDY,8,8,,Study/JOL,"Study Phase",8001,,,-1,-1,,,,1
m20308741,vrihsvcpzu,Nick_Dissertation_EX2_EP_MSU_TEXAS,1,28,2022-10-22T17:32:04+00:00,8.1656060218811,5,Pure_Unrelated.csv,READVersionA.csv,"Read Pure U A","Read Pure U A",JUSTICE,MAROON,Study1,U,6,7,STUDY,8,8,,Study/JOL,"Study Phase",8002,,,-1,-1,,,,1
m20308741,vrihsvcpzu,Nick_Dissertation_EX2_EP_MSU_TEXAS,1,29,2022-10-22T17:32:12+00:00,8.1717419624329,5,Pure_Unrelated.csv,READVersionA.csv,"Read Pure U A","Read Pure U A",DIZZY,SWEATER,Study1,U,77,22,STUDY,8,8,,Study/JOL,"Study Phase",8001,,,-1,-1,,,,1
m20308741,vrihsvcpzu,Nick_Dissertation_EX2_EP_MSU_TEXAS,1,30,2022-10-22T17:32:21+00:00,8.162036895752,5,Pure_Unrelated.csv,READVersionA.csv,"Read Pure U A","Read Pure U A",MAZE,ELECTION,Study1,U,9,41,STUDY,8,8,,Study/JOL,"Study Phase",8000,,,-1,-1,,,,1
m20308741,vrihsvcpzu,Nick_Dissertation_EX2_EP_MSU_TEXAS,1,31,2022-10-22T17:32:29+00:00,8.1641571521759,5,Pure_Unrelated.csv,READVersionA.csv,"Read Pure U A","Read Pure U A",MEAT,OBTAIN,Study1,U,11,8,STUDY,8,8,,Study/JOL,"Study Phase",8002,,,-1,-1,,,,1
m20308741,vrihsvcpzu,Nick_Dissertation_EX2_EP_MSU_TEXAS,1,32,2022-10-22T17:32:37+00:00,8.1641688346863,5,Pure_Unrelated.csv,READVersionA.csv,"Read Pure U A","Read Pure U A",KEYS,JOKE,Study1,U,15,25,STUDY,8,8,,Study/JOL,"Study Phase",8000,,,-1,-1,,,,1
m20308741,vrihsvcpzu,Nick_Dissertation_EX2_EP_MSU_TEXAS,1,33,2022-10-22T17:32:45+00:00,8.1674871444702,5,Pure_Unrelated.csv,READVersionA.csv,"Read Pure U A","Read Pure U A",LOAN,SIGN,Study1,U,21,27,STUDY,8,8,,Study/JOL,"Study Phase",8002,,,-1,-1,,,,1
m20308741,vrihsvcpzu,Nick_Dissertation_EX2_EP_MSU_TEXAS,1,34,2022-10-22T17:32:53+00:00,8.1596729755402,5,Pure_Unrelated.csv,READVersionA.csv,"Read Pure U A","Read Pure U A",VEHICLE,CHARM,Study1,U,10,45,STUDY,8,8,,Study/JOL,"Study Phase",8005,,,-1,-1,,,,1
m20308741,vrihsvcpzu,Nick_Dissertation_EX2_EP_MSU_TEXAS,1,35,2022-10-22T17:33:01+00:00,8.1583299636841,5,Pure_Unrelated.csv,READVersionA.csv,"Read Pure U A","Read Pure U A",BROAD,INFECT,Study1,U,75,13,STUDY,8,8,,Study/JOL,"Study Phase",8002,,,-1,-1,,,,1
m20308741,vrihsvcpzu,Nick_Dissertation_EX2_EP_MSU_TEXAS,1,36,2022-10-22T17:33:10+00:00,8.1675469875336,5,Pure_Unrelated.csv,READVersionA.csv,"Read Pure U A","Read Pure U A",CRACKLE,ABLE,Study1,U,12,32,STUDY,8,8,,Study/JOL,"Study Phase",8000,,,-1,-1,,,,1
m20308741,vrihsvcpzu,Nick_Dissertation_EX2_EP_MSU_TEXAS,1,37,2022-10-22T17:33:18+00:00,8.1658179759979,5,Pure_Unrelated.csv,READVersionA.csv,"Read Pure U A","Read Pure U A",FUZZY,BANG,Study1,U,18,28,STUDY,8,8,,Study/JOL,"Study Phase",8003,,,-1,-1,,,,1
m20308741,vrihsvcpzu,Nick_Dissertation_EX2_EP_MSU_TEXAS,1,38,2022-10-22T17:33:26+00:00,8.2766830921173,5,Pure_Unrelated.csv,READVersionA.csv,"Read Pure U A","Read Pure U A",DONKEY,LUSH,Study1,U,84,19,STUDY,8,8,,Study/JOL,"Study Phase",8001,,,-1,-1,,,,1
m20308741,vrihsvcpzu,Nick_Dissertation_EX2_EP_MSU_TEXAS,1,39,2022-10-22T17:33:34+00:00,8.1572999954224,5,Pure_Unrelated.csv,READVersionA.csv,"Read Pure U A","Read Pure U A",LISTEN,FICTION,Study1,U,14,9,STUDY,8,8,,Study/JOL,"Study Phase",8001,,,-1,-1,,,,1
m20308741,vrihsvcpzu,Nick_Dissertation_EX2_EP_MSU_TEXAS,1,40,2022-10-22T17:33:42+00:00,8.1683840751648,5,Pure_Unrelated.csv,READVersionA.csv,"Read Pure U A","Read Pure U A",NAME,HATE,Study1,U,17,35,STUDY,8,8,,Study/JOL,"Study Phase",8005,,,-1,-1,,,,1
m20308741,vrihsvcpzu,Nick_Dissertation_EX2_EP_MSU_TEXAS,1,41,2022-10-22T17:33:50+00:00,8.1641969680786,5,Pure_Unrelated.csv,READVersionA.csv,"Read Pure U A","Read Pure U A",MAIN,SCAR,Study1,U,25,46,STUDY,8,8,,Study/JOL,"Study Phase",8001,,,-1,-1,,,,1
m20308741,vrihsvcpzu,Nick_Dissertation_EX2_EP_MSU_TEXAS,1,42,2022-10-22T17:33:59+00:00,8.1704878807068,5,Pure_Unrelated.csv,READVersionA.csv,"Read Pure U A","Read Pure U A",FUTURE,SINCERE,Study1,U,70,24,STUDY,8,8,,Study/JOL,"Study Phase",8002,,,-1,-1,,,,1
m20308741,vrihsvcpzu,Nick_Dissertation_EX2_EP_MSU_TEXAS,1,43,2022-10-22T17:34:07+00:00,8.163419008255,5,Pure_Unrelated.csv,READVersionA.csv,"Read Pure U A","Read Pure U A",CRAYON,RATE,Study1,U,79,37,STUDY,8,8,,Study/JOL,"Study Phase",8000,,,-1,-1,,,,1
m20308741,vrihsvcpzu,Nick_Dissertation_EX2_EP_MSU_TEXAS,1,44,2022-10-22T17:34:15+00:00,8.1587409973145,5,Pure_Unrelated.csv,READVersionA.csv,"Read Pure U A","Read Pure U A",CAKE,CLOTHES,Study1,U,16,31,STUDY,8,8,,Study/JOL,"Study Phase",8002,,,-1,-1,,,,1
m20308741,vrihsvcpzu,Nick_Dissertation_EX2_EP_MSU_TEXAS,1,45,2022-10-22T17:34:23+00:00,8.1672859191895,5,Pure_Unrelated.csv,READVersionA.csv,"Read Pure U A","Read Pure U A",TAX,OWL,Study1,U,72,14,STUDY,8,8,,Study/JOL,"Study Phase",8001,,,-1,-1,,,,1
m20308741,vrihsvcpzu,Nick_Dissertation_EX2_EP_MSU_TEXAS,1,46,2022-10-22T17:34:31+00:00,8.1762871742249,5,Pure_Unrelated.csv,READVersionA.csv,"Read Pure U A","Read Pure U A",TEMPERATURE,MORNING,Study1,U,23,29,STUDY,8,8,,Study/JOL,"Study Phase",8003,,,-1,-1,,,,1
m20308741,vrihsvcpzu,Nick_Dissertation_EX2_EP_MSU_TEXAS,1,47,2022-10-22T17:34:39+00:00,8.1590280532837,5,Pure_Unrelated.csv,READVersionA.csv,"Read Pure U A","Read Pure U A",MOON,SPACE,BUFFER2,Buffer,89,51,STUDY,8,8,,Study/JOL,BUFFER2,8001,,,-1,-1,,,,1
m20308741,vrihsvcpzu,Nick_Dissertation_EX2_EP_MSU_TEXAS,1,48,2022-10-22T17:34:48+00:00,8.1673758029938,5,Pure_Unrelated.csv,READVersionA.csv,"Read Pure U A","Read Pure U A",MALT,CHOCOLATE,BUFFER2,Buffer,88,49,STUDY,8,8,,Study/JOL,BUFFER2,8001,,,-1,-1,,,,1
m20308741,vrihsvcpzu,Nick_Dissertation_EX2_EP_MSU_TEXAS,1,49,2022-10-22T17:34:56+00:00,8.1608099937439,5,Pure_Unrelated.csv,READVersionA.csv,"Read Pure U A","Read Pure U A",SHERRIF,POLICE,BUFFER2,Buffer,87,50,STUDY,8,8,,Study/JOL,BUFFER2,8001,,,-1,-1,,,,1
m20308741,vrihsvcpzu,Nick_Dissertation_EX2_EP_MSU_TEXAS,1,50,2022-10-22T17:35:04+00:00,8.1711390018463,5,Pure_Unrelated.csv,READVersionA.csv,"Read Pure U A","Read Pure U A",GEESE,GOOSE,BUFFER2,Buffer,86,47,STUDY,8,8,,Study/JOL,BUFFER2,8005,,,-1,-1,,,,1
m20308741,vrihsvcpzu,Nick_Dissertation_EX2_EP_MSU_TEXAS,1,51,2022-10-22T17:35:12+00:00,8.16890001297,5,Pure_Unrelated.csv,READVersionA.csv,"Read Pure U A","Read Pure U A",THING,STUFF,BUFFER2,Buffer,90,48,STUDY,8,8,,Study/JOL,BUFFER2,8001,,,-1,-1,,,,1
m20308741,vrihsvcpzu,Nick_Dissertation_EX2_EP_MSU_TEXAS,1,52,2022-10-22T17:35:16+00:00,3.835263967514,5,Pure_Unrelated.csv,READVersionA.csv,"Read Pure U A","Read Pure U A",,,,,,0,Instruct,User,-,"You have completed this section. Please press Enter.",Filler_Instruction,Instruct2,3678,,,-1,-1,,,,1
m20308741,vrihsvcpzu,Nick_Dissertation_EX2_EP_MSU_TEXAS,1,53,2022-10-22T17:37:16+00:00,120.28558206558,5,Pure_Unrelated.csv,READVersionA.csv,"Read Pure U A","Read Pure U A",,,,,,0,FreeRecall,120,120,"Please list the 50 US states in alphabetical order. The task will automatically advance to the next screen after two minutes.",,Filler1,120000,"alabama alaska arkansas california illinios michagan new mexico new york north dakota south dakota texas vermont virginia ",0,10736,114882,0,0,,1
m20308741,vrihsvcpzu,Nick_Dissertation_EX2_EP_MSU_TEXAS,1,54,2022-10-22T17:37:27+00:00,11.095318078995,5,Pure_Unrelated.csv,READVersionA.csv,"Read Pure U A","Read Pure U A",,,,,,0,Instruct,-,10,"You will now be presented with the first word from each of the previously studied item pairs. Please type the missing word. If you do not know the word, you may guess or press Enter to skip forward to the next pair.",,Instruct3,10906,,,-1,-1,,,,1
m20308741,vrihsvcpzu,Nick_Dissertation_EX2_EP_MSU_TEXAS,1,55,2022-10-22T17:37:34+00:00,6.7229340076447,5,Pure_Unrelated.csv,READVersionA.csv,"Read Pure U A","Read Pure U A",MAIN,SCAR,Study1,U,25,46,Test,User,-,,Recall,Recall1,6557,topping,0,3658,5441,0,0,,1
m20308741,vrihsvcpzu,Nick_Dissertation_EX2_EP_MSU_TEXAS,1,56,2022-10-22T17:37:39+00:00,4.8667168617249,5,Pure_Unrelated.csv,READVersionA.csv,"Read Pure U A","Read Pure U A",DONKEY,LUSH,Study1,U,84,19,Test,User,-,,Recall,Recall1,4712,horse,22.222222222222,2368,3737,0,0,,1
m20308741,vrihsvcpzu,Nick_Dissertation_EX2_EP_MSU_TEXAS,1,57,2022-10-22T17:37:43+00:00,3.9031431674957,5,Pure_Unrelated.csv,READVersionA.csv,"Read Pure U A","Read Pure U A",LEASE,TOIL,Study1,U,20,10,Test,User,-,,Recall,Recall1,3742,agent,22.222222222222,1944,2653,0,0,,1
m20308741,vrihsvcpzu,Nick_Dissertation_EX2_EP_MSU_TEXAS,1,58,2022-10-22T17:37:47+00:00,3.6817219257355,5,Pure_Unrelated.csv,READVersionA.csv,"Read Pure U A","Read Pure U A",DIFFICULT,POOR,Study1,U,81,40,Test,User,-,,Recall,Recall1,3521,hard,25,1721,2452,0,0,,1
m20308741,vrihsvcpzu,Nick_Dissertation_EX2_EP_MSU_TEXAS,1,59,2022-10-22T17:37:54+00:00,7.0180490016937,5,Pure_Unrelated.csv,READVersionA.csv,"Read Pure U A","Read Pure U A",PARCEL,THROAT,Study1,U,67,44,Test,User,-,,Recall,Recall1,6856,rose,40,3968,5425,0,0,,1
m20308741,vrihsvcpzu,Nick_Dissertation_EX2_EP_MSU_TEXAS,1,60,2022-10-22T17:37:58+00:00,4.7317850589752,5,Pure_Unrelated.csv,READVersionA.csv,"Read Pure U A","Read Pure U A",TAX,OWL,Study1,U,72,14,Test,User,-,,Recall,Recall1,4568,ivasion,20,1708,3217,0,0,,1
m20308741,vrihsvcpzu,Nick_Dissertation_EX2_EP_MSU_TEXAS,1,61,2022-10-22T17:38:03+00:00,4.6857008934021,5,Pure_Unrelated.csv,READVersionA.csv,"Read Pure U A","Read Pure U A",JUSTICE,MAROON,Study1,U,6,7,Test,User,-,,Recall,Recall1,4512,freedom,30.769230769231,1958,3185,0,0,,1
m20308741,vrihsvcpzu,Nick_Dissertation_EX2_EP_MSU_TEXAS,1,62,2022-10-22T17:38:07+00:00,4.3246870040894,5,Pure_Unrelated.csv,READVersionA.csv,"Read Pure U A","Read Pure U A",KEYS,JOKE,Study1,U,15,25,Test,User,-,,Recall,Recall1,4153,gaurd,0,2408,3284,0,0,,1
m20308741,vrihsvcpzu,Nick_Dissertation_EX2_EP_MSU_TEXAS,1,63,2022-10-22T17:38:17+00:00,9.3193161487579,5,Pure_Unrelated.csv,READVersionA.csv,"Read Pure U A","Read Pure U A",NUMBER,HARD,Study1,U,78,36,Test,User,-,,Recall,Recall1,9057,call,25,2223,7437,0,0,,1
m20308741,vrihsvcpzu,Nick_Dissertation_EX2_EP_MSU_TEXAS,1,64,2022-10-22T17:38:29+00:00,12.593934774399,5,Pure_Unrelated.csv,READVersionA.csv,"Read Pure U A","Read Pure U A",VEHICLE,CHARM,Study1,U,10,45,Test,User,-,,Recall,Recall1,12426,"vegistration ",11.764705882353,1844,10850,0,0,,1
m20308741,vrihsvcpzu,Nick_Dissertation_EX2_EP_MSU_TEXAS,1,65,2022-10-22T17:38:36+00:00,6.7695751190186,5,Pure_Unrelated.csv,READVersionA.csv,"Read Pure U A","Read Pure U A",PET,MOON,Study1,U,74,15,Test,User,-,,Recall,Recall1,6512,toy,28.571428571429,3571,6062,0,0,,1
m20308741,vrihsvcpzu,Nick_Dissertation_EX2_EP_MSU_TEXAS,1,66,2022-10-22T17:38:39+00:00,3.1341009140015,5,Pure_Unrelated.csv,READVersionA.csv,"Read Pure U A","Read Pure U A",GIVE,STEAK,Study1,U,8,16,Test,User,-,,Recall,Recall1,2980,me,28.571428571429,1565,1680,0,0,,1
m20308741,vrihsvcpzu,Nick_Dissertation_EX2_EP_MSU_TEXAS,1,67,2022-10-22T17:38:45+00:00,6.2933750152588,5,Pure_Unrelated.csv,READVersionA.csv,"Read Pure U A","Read Pure U A",MEAT,OBTAIN,Study1,U,11,8,Test,User,-,,Recall,Recall1,6128,cow,22.222222222222,3608,5533,0,0,,1
m20308741,vrihsvcpzu,Nick_Dissertation_EX2_EP_MSU_TEXAS,1,68,2022-10-22T17:38:52+00:00,6.4136071205139,5,Pure_Unrelated.csv,READVersionA.csv,"Read Pure U A","Read Pure U A",MAZE,ELECTION,Study1,U,9,41,Test,User,-,,Recall,Recall1,6249,a,0,2534,2666,0,0,,1
m20308741,vrihsvcpzu,Nick_Dissertation_EX2_EP_MSU_TEXAS,1,69,2022-10-22T17:38:57+00:00,4.9899199008942,5,Pure_Unrelated.csv,READVersionA.csv,"Read Pure U A","Read Pure U A",MIRROR,CHILDREN,Study1,U,24,38,Test,User,-,,Recall,Recall1,4833,child,76.923076923077,1939,4401,0,1,,1
m20308741,vrihsvcpzu,Nick_Dissertation_EX2_EP_MSU_TEXAS,1,70,2022-10-22T17:38:59+00:00,2.2749450206757,5,Pure_Unrelated.csv,READVersionA.csv,"Read Pure U A","Read Pure U A",CAKE,CLOTHES,Study1,U,16,31,Test,User,-,,Recall,Recall1,2116,me,22.222222222222,1631,1742,0,0,,1
m20308741,vrihsvcpzu,Nick_Dissertation_EX2_EP_MSU_TEXAS,1,71,2022-10-22T17:39:01+00:00,2.402899980545,5,Pure_Unrelated.csv,READVersionA.csv,"Read Pure U A","Read Pure U A",BAT,SHAKY,Study1,U,66,17,Test,User,-,,Recall,Recall1,2237,man,25,1625,1883,0,0,,1
m20308741,vrihsvcpzu,Nick_Dissertation_EX2_EP_MSU_TEXAS,1,72,2022-10-22T17:39:07+00:00,5.277498960495,5,Pure_Unrelated.csv,READVersionA.csv,"Read Pure U A","Read Pure U A",NAME,HATE,Study1,U,17,35,Test,User,-,,Recall,Recall1,5117,carmelo,36.363636363636,3662,4703,0,0,,1
m20308741,vrihsvcpzu,Nick_Dissertation_EX2_EP_MSU_TEXAS,1,73,2022-10-22T17:39:09+00:00,2.5617671012878,5,Pure_Unrelated.csv,READVersionA.csv,"Read Pure U A","Read Pure U A",TEMPERATURE,MORNING,Study1,U,23,29,Test,User,-,,Recall,Recall1,2390,hot,20,1324,2030,0,0,,1
m20308741,vrihsvcpzu,Nick_Dissertation_EX2_EP_MSU_TEXAS,1,74,2022-10-22T17:39:15+00:00,5.4761939048767,5,Pure_Unrelated.csv,READVersionA.csv,"Read Pure U A","Read Pure U A",LOAN,SIGN,Study1,U,21,27,Test,User,-,,Recall,Recall1,5309,shark,22.222222222222,2141,4908,0,0,,1
m20308741,vrihsvcpzu,Nick_Dissertation_EX2_EP_MSU_TEXAS,1,75,2022-10-22T17:39:19+00:00,4.147301197052,5,Pure_Unrelated.csv,READVersionA.csv,"Read Pure U A","Read Pure U A",CRACKLE,ABLE,Study1,U,12,32,Test,User,-,,Recall,Recall1,3987,barrel,40,2078,3506,0,0,,1
m20308741,vrihsvcpzu,Nick_Dissertation_EX2_EP_MSU_TEXAS,1,76,2022-10-22T17:39:21+00:00,2.3840358257294,5,Pure_Unrelated.csv,READVersionA.csv,"Read Pure U A","Read Pure U A",STRETCH,CLOTH,Study1,U,7,30,Test,User,-,,Recall,Recall1,2218,me,0,1498,1809,0,0,,1
m20308741,vrihsvcpzu,Nick_Dissertation_EX2_EP_MSU_TEXAS,1,77,2022-10-22T17:39:25+00:00,3.1847050189972,5,Pure_Unrelated.csv,READVersionA.csv,"Read Pure U A","Read Pure U A",MOAT,CLEAR,Study1,U,19,18,Test,User,-,,Recall,Recall1,3027,boat,22.222222222222,1729,2654,0,0,,1
m20308741,vrihsvcpzu,Nick_Dissertation_EX2_EP_MSU_TEXAS,1,78,2022-10-22T17:39:28+00:00,3.0068211555481,5,Pure_Unrelated.csv,READVersionA.csv,"Read Pure U A","Read Pure U A",DIZZY,SWEATER,Study1,U,77,22,Test,User,-,,Recall,Recall1,2857,wand,36.363636363636,1838,2657,0,0,,1
m20308741,vrihsvcpzu,Nick_Dissertation_EX2_EP_MSU_TEXAS,1,79,2022-10-22T17:39:30+00:00,2.7360618114471,5,Pure_Unrelated.csv,READVersionA.csv,"Read Pure U A","Read Pure U A",THICK,CONTEST,Study1,U,73,20,Test,User,-,,Recall,Recall1,2580,em,22.222222222222,2020,2122,0,0,,1
m20308741,vrihsvcpzu,Nick_Dissertation_EX2_EP_MSU_TEXAS,1,80,2022-10-22T17:39:33+00:00,2.3489530086517,5,Pure_Unrelated.csv,READVersionA.csv,"Read Pure U A","Read Pure U A",DEGREE,CHAIR,Study1,U,71,42,Test,User,-,,Recall,Recall1,2196,plan,22.222222222222,1305,1766,0,0,,1
m20308741,vrihsvcpzu,Nick_Dissertation_EX2_EP_MSU_TEXAS,1,81,2022-10-22T17:39:36+00:00,3.5855450630188,5,Pure_Unrelated.csv,READVersionA.csv,"Read Pure U A","Read Pure U A",FUTURE,SINCERE,Study1,U,70,24,Test,User,-,,Recall,Recall1,3430,rama,18.181818181818,2302,2988,0,0,,1
m20308741,vrihsvcpzu,Nick_Dissertation_EX2_EP_MSU_TEXAS,1,82,2022-10-22T17:39:40+00:00,3.4480481147766,5,Pure_Unrelated.csv,READVersionA.csv,"Read Pure U A","Read Pure U A",GRIND,STAND,Study1,U,85,26,Test,User,-,,Recall,Recall1,3291,slow,22.222222222222,2391,2990,0,0,,1
m20308741,vrihsvcpzu,Nick_Dissertation_EX2_EP_MSU_TEXAS,1,83,2022-10-22T17:39:47+00:00,7.0765628814697,5,Pure_Unrelated.csv,READVersionA.csv,"Read Pure U A","Read Pure U A",RIPE,VERIFY,Study1,U,83,21,Test,User,-,,Recall,Recall1,6910,orarange,14.285714285714,1933,6495,0,0,,1
m20308741,vrihsvcpzu,Nick_Dissertation_EX2_EP_MSU_TEXAS,1,84,2022-10-22T17:39:51+00:00,4.065407037735,5,Pure_Unrelated.csv,READVersionA.csv,"Read Pure U A","Read Pure U A",BROAD,INFECT,Study1,U,75,13,Test,User,-,,Recall,Recall1,3893,spectrum,42.857142857143,1643,3464,0,0,,1
m20308741,vrihsvcpzu,Nick_Dissertation_EX2_EP_MSU_TEXAS,1,85,2022-10-22T17:39:54+00:00,2.7815999984741,5,Pure_Unrelated.csv,READVersionA.csv,"Read Pure U A","Read Pure U A",STRESS,YAM,Study1,U,68,12,Test,User,-,,Recall,Recall1,2619,ball,28.571428571429,1428,2124,0,0,,1
m20308741,vrihsvcpzu,Nick_Dissertation_EX2_EP_MSU_TEXAS,1,86,2022-10-22T17:39:58+00:00,4.408942937851,5,Pure_Unrelated.csv,READVersionA.csv,"Read Pure U A","Read Pure U A",WARN,SEA,Study1,U,80,23,Test,User,-,,Recall,Recall1,4252,close,50,2448,3989,0,0,,1
m20308741,vrihsvcpzu,Nick_Dissertation_EX2_EP_MSU_TEXAS,1,87,2022-10-22T17:40:03+00:00,5.0745561122894,5,Pure_Unrelated.csv,READVersionA.csv,"Read Pure U A","Read Pure U A",ROSE,NEGLECT,Study1,U,82,39,Test,User,-,,Recall,Recall1,4914,pillow,15.384615384615,3517,4587,0,0,,1
m20308741,vrihsvcpzu,Nick_Dissertation_EX2_EP_MSU_TEXAS,1,88,2022-10-22T17:40:07+00:00,3.8970580101013,5,Pure_Unrelated.csv,READVersionA.csv,"Read Pure U A","Read Pure U A",INFLATE,DISGUST,Study1,U,76,33,Test,User,-,,Recall,Recall1,3726,"ballon ",0,1566,3193,0,0,,1
m20308741,vrihsvcpzu,Nick_Dissertation_EX2_EP_MSU_TEXAS,1,89,2022-10-22T17:40:10+00:00,2.8543918132782,5,Pure_Unrelated.csv,READVersionA.csv,"Read Pure U A","Read Pure U A",BOTH,OUNCE,Study1,U,22,11,Test,User,-,,Recall,Recall1,2692,hands,20,1719,2444,0,0,,1
m20308741,vrihsvcpzu,Nick_Dissertation_EX2_EP_MSU_TEXAS,1,90,2022-10-22T17:40:12+00:00,2.2841432094574,5,Pure_Unrelated.csv,READVersionA.csv,"Read Pure U A","Read Pure U A",SHELL,SHAKE,Study1,U,13,43,Test,User,-,,Recall,Recall1,2118,gas,25,1547,1896,0,0,,1
m20308741,vrihsvcpzu,Nick_Dissertation_EX2_EP_MSU_TEXAS,1,91,2022-10-22T17:40:14+00:00,2.2036039829254,5,Pure_Unrelated.csv,READVersionA.csv,"Read Pure U A","Read Pure U A",FUZZY,BANG,Study1,U,18,28,Test,User,-,,Recall,Recall1,2010,ball,50,1102,1611,0,0,,1
m20308741,vrihsvcpzu,Nick_Dissertation_EX2_EP_MSU_TEXAS,1,92,2022-10-22T17:40:19+00:00,4.2944679260254,5,Pure_Unrelated.csv,READVersionA.csv,"Read Pure U A","Read Pure U A",CRAYON,RATE,Study1,U,79,37,Test,User,-,,Recall,Recall1,4109,color,22.222222222222,1813,3501,0,0,,1
m20308741,vrihsvcpzu,Nick_Dissertation_EX2_EP_MSU_TEXAS,1,93,2022-10-22T17:40:22+00:00,3.3299660682678,5,Pure_Unrelated.csv,READVersionA.csv,"Read Pure U A","Read Pure U A",LISTEN,FICTION,Study1,U,14,9,Test,User,-,,Recall,Recall1,3139,closely,28.571428571429,1391,2724,0,0,,1
m20308741,vrihsvcpzu,Nick_Dissertation_EX2_EP_MSU_TEXAS,1,94,2022-10-22T17:40:24+00:00,2.3732419013977,5,Pure_Unrelated.csv,READVersionA.csv,"Read Pure U A","Read Pure U A",RESIST,GLUE,Study1,U,69,34,Test,User,-,,Recall,Recall1,2182,pain,0,1312,1788,0,0,,1
m20308741,vrihsvcpzu,Nick_Dissertation_EX2_EP_MSU_TEXAS,1,95,2022-10-22T17:40:35+00:00,10.716438055038,5,Pure_Unrelated.csv,READVersionA.csv,"Read Pure U A","Read Pure U A",,,,,,0,Instruct,-,10,"You will now be presented with a new set of word pairs. Please study each pair. Remember that your memory will be tested! Each pair will be displayed on the computer screen and will automatically advance to the next pair. Press ENTER when you are ready to begin.",Initial_Instruct,Instruct4,10518,,,-1,-1,,,,1
m20308741,vrihsvcpzu,Nick_Dissertation_EX2_EP_MSU_TEXAS,1,96,2022-10-22T17:40:43+00:00,8.1681299209595,5,Pure_Unrelated.csv,READVersionA.csv,"Read Pure U A","Read Pure U A",CAMP,ADVENTURE,BUFFER3,Buffer,95,55,STUDY,8,8,,Study/JOL,BUFFER3,8002,,,-1,-1,,,,1
m20308741,vrihsvcpzu,Nick_Dissertation_EX2_EP_MSU_TEXAS,1,97,2022-10-22T17:40:51+00:00,8.1583189964294,5,Pure_Unrelated.csv,READVersionA.csv,"Read Pure U A","Read Pure U A",CARROT,POTATO,BUFFER3,Buffer,91,52,STUDY,8,8,,Study/JOL,BUFFER3,8004,,,-1,-1,,,,1
m20308741,vrihsvcpzu,Nick_Dissertation_EX2_EP_MSU_TEXAS,1,98,2022-10-22T17:40:59+00:00,8.16326212883,5,Pure_Unrelated.csv,READVersionA.csv,"Read Pure U A","Read Pure U A",ICE,FROZEN,BUFFER3,Buffer,94,56,STUDY,8,8,,Study/JOL,BUFFER3,8001,,,-1,-1,,,,1
m20308741,vrihsvcpzu,Nick_Dissertation_EX2_EP_MSU_TEXAS,1,99,2022-10-22T17:41:08+00:00,8.2051408290863,5,Pure_Unrelated.csv,READVersionA.csv,"Read Pure U A","Read Pure U A",NOODLE,STRING,BUFFER3,Buffer,92,53,STUDY,8,8,,Study/JOL,BUFFER3,8004,,,-1,-1,,,,1
m20308741,vrihsvcpzu,Nick_Dissertation_EX2_EP_MSU_TEXAS,1,100,2022-10-22T17:41:16+00:00,8.1616101264954,5,Pure_Unrelated.csv,READVersionA.csv,"Read Pure U A","Read Pure U A",SHRIMP,FISH,BUFFER3,Buffer,93,54,STUDY,8,8,,Study/JOL,BUFFER3,8001,,,-1,-1,,,,1
m20308741,vrihsvcpzu,Nick_Dissertation_EX2_EP_MSU_TEXAS,1,101,2022-10-22T17:41:24+00:00,8.1798219680786,5,Pure_Unrelated.csv,READVersionA.csv,"Read Pure U A","Read Pure U A",SMOOTH,OMIT,Study2,U,157,66,STUDY,8,8,,Study/JOL,"Study Phase2",8002,,,-1,-1,,,,1
m20308741,vrihsvcpzu,Nick_Dissertation_EX2_EP_MSU_TEXAS,1,102,2022-10-22T17:41:32+00:00,8.1686799526215,5,Pure_Unrelated.csv,READVersionA.csv,"Read Pure U A","Read Pure U A",BRONZE,ARTERY,Study2,U,104,76,STUDY,8,8,,Study/JOL,"Study Phase2",8001,,,-1,-1,,,,1
m20308741,vrihsvcpzu,Nick_Dissertation_EX2_EP_MSU_TEXAS,1,103,2022-10-22T17:41:40+00:00,8.1571650505066,5,Pure_Unrelated.csv,READVersionA.csv,"Read Pure U A","Read Pure U A",TUCK,ALLOW,Study2,U,108,86,STUDY,8,8,,Study/JOL,"Study Phase2",8001,,,-1,-1,,,,1
m20308741,vrihsvcpzu,Nick_Dissertation_EX2_EP_MSU_TEXAS,1,104,2022-10-22T17:41:49+00:00,8.1720049381256,5,Pure_Unrelated.csv,READVersionA.csv,"Read Pure U A","Read Pure U A",FLOOR,DISCOVER,Study2,U,101,59,STUDY,8,8,,Study/JOL,"Study Phase2",8000,,,-1,-1,,,,1
m20308741,vrihsvcpzu,Nick_Dissertation_EX2_EP_MSU_TEXAS,1,105,2022-10-22T17:41:57+00:00,8.1736221313477,5,Pure_Unrelated.csv,READVersionA.csv,"Read Pure U A","Read Pure U A",DETECT,FREE,Study2,U,162,74,STUDY,8,8,,Study/JOL,"Study Phase2",8001,,,-1,-1,,,,1
m20308741,vrihsvcpzu,Nick_Dissertation_EX2_EP_MSU_TEXAS,1,106,2022-10-22T17:42:05+00:00,8.1674618721008,5,Pure_Unrelated.csv,READVersionA.csv,"Read Pure U A","Read Pure U A",STOMACH,TOWN,Study2,U,159,96,STUDY,8,8,,Study/JOL,"Study Phase2",8003,,,-1,-1,,,,1
m20308741,vrihsvcpzu,Nick_Dissertation_EX2_EP_MSU_TEXAS,1,107,2022-10-22T17:42:13+00:00,8.1659889221191,5,Pure_Unrelated.csv,READVersionA.csv,"Read Pure U A","Read Pure U A",PUT,ROLL,Study2,U,163,77,STUDY,8,8,,Study/JOL,"Study Phase2",8001,,,-1,-1,,,,1
m20308741,vrihsvcpzu,Nick_Dissertation_EX2_EP_MSU_TEXAS,1,108,2022-10-22T17:42:21+00:00,8.1659700870514,5,Pure_Unrelated.csv,READVersionA.csv,"Read Pure U A","Read Pure U A",ADD,VALLEY,Study2,U,112,89,STUDY,8,8,,Study/JOL,"Study Phase2",8001,,,-1,-1,,,,1
m20308741,vrihsvcpzu,Nick_Dissertation_EX2_EP_MSU_TEXAS,1,109,2022-10-22T17:42:29+00:00,8.1663711071014,5,Pure_Unrelated.csv,READVersionA.csv,"Read Pure U A","Read Pure U A",MUTE,WAVE,Study2,U,173,61,STUDY,8,8,,Study/JOL,"Study Phase2",8001,,,-1,-1,,,,1
m20308741,vrihsvcpzu,Nick_Dissertation_EX2_EP_MSU_TEXAS,1,110,2022-10-22T17:42:38+00:00,8.1744530200958,5,Pure_Unrelated.csv,READVersionA.csv,"Read Pure U A","Read Pure U A",CLUTTER,PUSHER,Study2,U,96,73,STUDY,8,8,,Study/JOL,"Study Phase2",8002,,,-1,-1,,,,1
m20308741,vrihsvcpzu,Nick_Dissertation_EX2_EP_MSU_TEXAS,1,111,2022-10-22T17:42:46+00:00,8.1858518123627,5,Pure_Unrelated.csv,READVersionA.csv,"Read Pure U A","Read Pure U A",SPELL,BONE,Study2,U,174,80,STUDY,8,8,,Study/JOL,"Study Phase2",8001,,,-1,-1,,,,1
m20308741,vrihsvcpzu,Nick_Dissertation_EX2_EP_MSU_TEXAS,1,112,2022-10-22T17:42:54+00:00,8.1694769859314,5,Pure_Unrelated.csv,READVersionA.csv,"Read Pure U A","Read Pure U A",RIDDLE,SUGAR,Study2,U,111,95,STUDY,8,8,,Study/JOL,"Study Phase2",8001,,,-1,-1,,,,1
m20308741,vrihsvcpzu,Nick_Dissertation_EX2_EP_MSU_TEXAS,1,113,2022-10-22T17:43:02+00:00,8.162985086441,5,Pure_Unrelated.csv,READVersionA.csv,"Read Pure U A","Read Pure U A",ZOO,THUMB,Study2,U,168,91,STUDY,8,8,,Study/JOL,"Study Phase2",8001,,,-1,-1,,,,1
m20308741,vrihsvcpzu,Nick_Dissertation_EX2_EP_MSU_TEXAS,1,114,2022-10-22T17:43:10+00:00,8.1661031246185,5,Pure_Unrelated.csv,READVersionA.csv,"Read Pure U A","Read Pure U A",Business,Death,Study2,U,102,57,STUDY,8,8,,Study/JOL,"Study Phase2",8001,,,-1,-1,,,,1
m20308741,vrihsvcpzu,Nick_Dissertation_EX2_EP_MSU_TEXAS,1,115,2022-10-22T17:43:18+00:00,8.1783819198608,5,Pure_Unrelated.csv,READVersionA.csv,"Read Pure U A","Read Pure U A",BELT,SOON,Study2,U,100,65,STUDY,8,8,,Study/JOL,"Study Phase2",8002,,,-1,-1,,,,1
m20308741,vrihsvcpzu,Nick_Dissertation_EX2_EP_MSU_TEXAS,1,116,2022-10-22T17:43:27+00:00,8.1703588962555,5,Pure_Unrelated.csv,READVersionA.csv,"Read Pure U A","Read Pure U A",PUFF,NUMBER,Study2,U,171,92,STUDY,8,8,,Study/JOL,"Study Phase2",8004,,,-1,-1,,,,1
m20308741,vrihsvcpzu,Nick_Dissertation_EX2_EP_MSU_TEXAS,1,117,2022-10-22T17:43:35+00:00,8.1697909832001,5,Pure_Unrelated.csv,READVersionA.csv,"Read Pure U A","Read Pure U A",SYSTEM,LICK,Study2,U,167,69,STUDY,8,8,,Study/JOL,"Study Phase2",8005,,,-1,-1,,,,1
m20308741,vrihsvcpzu,Nick_Dissertation_EX2_EP_MSU_TEXAS,1,118,2022-10-22T17:43:43+00:00,8.2714030742645,5,Pure_Unrelated.csv,READVersionA.csv,"Read Pure U A","Read Pure U A",VASE,KING,Study2,U,115,78,STUDY,8,8,,Study/JOL,"Study Phase2",8000,,,-1,-1,,,,1
m20308741,vrihsvcpzu,Nick_Dissertation_EX2_EP_MSU_TEXAS,1,119,2022-10-22T17:43:51+00:00,8.1617889404297,5,Pure_Unrelated.csv,READVersionA.csv,"Read Pure U A","Read Pure U A",ACCIDENT,STRONG,Study2,U,110,67,STUDY,8,8,,Study/JOL,"Study Phase2",8001,,,-1,-1,,,,1
m20308741,vrihsvcpzu,Nick_Dissertation_EX2_EP_MSU_TEXAS,1,120,2022-10-22T17:43:59+00:00,8.1742010116577,5,Pure_Unrelated.csv,READVersionA.csv,"Read Pure U A","Read Pure U A",WARN,SEA,Study1,U,80,23,STUDY,8,8,,Study/JOL,"Study Phase2",8002,,,-1,-1,,,,1
m20308741,vrihsvcpzu,Nick_Dissertation_EX2_EP_MSU_TEXAS,1,121,2022-10-22T17:44:08+00:00,8.1684770584106,5,Pure_Unrelated.csv,READVersionA.csv,"Read Pure U A","Read Pure U A",WASTE,SEDATE,Study2,U,165,88,STUDY,8,8,,Study/JOL,"Study Phase2",8002,,,-1,-1,,,,1
m20308741,vrihsvcpzu,Nick_Dissertation_EX2_EP_MSU_TEXAS,1,122,2022-10-22T17:44:16+00:00,8.1813290119171,5,Pure_Unrelated.csv,READVersionA.csv,"Read Pure U A","Read Pure U A",CAR,HAPPY,Study2,U,107,72,STUDY,8,8,,Study/JOL,"Study Phase2",8002,,,-1,-1,,,,1
m20308741,vrihsvcpzu,Nick_Dissertation_EX2_EP_MSU_TEXAS,1,123,2022-10-22T17:44:24+00:00,8.1663999557495,5,Pure_Unrelated.csv,READVersionA.csv,"Read Pure U A","Read Pure U A",SICK,HIDE,Study2,U,114,79,STUDY,8,8,,Study/JOL,"Study Phase2",8004,,,-1,-1,,,,1
m20308741,vrihsvcpzu,Nick_Dissertation_EX2_EP_MSU_TEXAS,1,124,2022-10-22T17:44:32+00:00,8.1699590682983,5,Pure_Unrelated.csv,READVersionA.csv,"Read Pure U A","Read Pure U A",READY,CORN,Study2,U,158,87,STUDY,8,8,,Study/JOL,"Study Phase2",8003,,,-1,-1,,,,1
m20308741,vrihsvcpzu,Nick_Dissertation_EX2_EP_MSU_TEXAS,1,125,2022-10-22T17:44:40+00:00,8.1822559833527,5,Pure_Unrelated.csv,READVersionA.csv,"Read Pure U A","Read Pure U A",LION,ART,Study2,U,109,81,STUDY,8,8,,Study/JOL,"Study Phase2",8001,,,-1,-1,,,,1
m20308741,vrihsvcpzu,Nick_Dissertation_EX2_EP_MSU_TEXAS,1,126,2022-10-22T17:44:48+00:00,8.1598970890045,5,Pure_Unrelated.csv,READVersionA.csv,"Read Pure U A","Read Pure U A",POSITION,MACHINE,Study2,U,106,75,STUDY,8,8,,Study/JOL,"Study Phase2",8002,,,-1,-1,,,,1
m20308741,vrihsvcpzu,Nick_Dissertation_EX2_EP_MSU_TEXAS,1,127,2022-10-22T17:44:57+00:00,8.16361784935,5,Pure_Unrelated.csv,READVersionA.csv,"Read Pure U A","Read Pure U A",SLIM,KNOW,Study2,U,164,68,STUDY,8,8,,Study/JOL,"Study Phase2",8004,,,-1,-1,,,,1
m20308741,vrihsvcpzu,Nick_Dissertation_EX2_EP_MSU_TEXAS,1,128,2022-10-22T17:45:05+00:00,8.1703009605408,5,Pure_Unrelated.csv,READVersionA.csv,"Read Pure U A","Read Pure U A",JELLY,NAUGHTY,Study2,U,172,90,STUDY,8,8,,Study/JOL,"Study Phase2",8001,,,-1,-1,,,,1
m20308741,vrihsvcpzu,Nick_Dissertation_EX2_EP_MSU_TEXAS,1,129,2022-10-22T17:45:13+00:00,8.1720201969147,5,Pure_Unrelated.csv,READVersionA.csv,"Read Pure U A","Read Pure U A",SIGHT,DEBATE,Study2,U,103,84,STUDY,8,8,,Study/JOL,"Study Phase2",8001,,,-1,-1,,,,1
m20308741,vrihsvcpzu,Nick_Dissertation_EX2_EP_MSU_TEXAS,1,130,2022-10-22T17:45:21+00:00,8.1737668514252,5,Pure_Unrelated.csv,READVersionA.csv,"Read Pure U A","Read Pure U A",HUNGRY,PARK,Study2,U,98,70,STUDY,8,8,,Study/JOL,"Study Phase2",8002,,,-1,-1,,,,1
m20308741,vrihsvcpzu,Nick_Dissertation_EX2_EP_MSU_TEXAS,1,131,2022-10-22T17:45:29+00:00,8.1778039932251,5,Pure_Unrelated.csv,READVersionA.csv,"Read Pure U A","Read Pure U A",GUARD,WHEEL,Study2,U,170,82,STUDY,8,8,,Study/JOL,"Study Phase2",8001,,,-1,-1,,,,1
m20308741,vrihsvcpzu,Nick_Dissertation_EX2_EP_MSU_TEXAS,1,132,2022-10-22T17:45:37+00:00,8.1564919948578,5,Pure_Unrelated.csv,READVersionA.csv,"Read Pure U A","Read Pure U A",SACKING,DIETARY,Study2,U,97,60,STUDY,8,8,,Study/JOL,"Study Phase2",8000,,,-1,-1,,,,1
m20308741,vrihsvcpzu,Nick_Dissertation_EX2_EP_MSU_TEXAS,1,133,2022-10-22T17:45:46+00:00,8.1700110435486,5,Pure_Unrelated.csv,READVersionA.csv,"Read Pure U A","Read Pure U A",DESIRE,NOISE,Study2,U,169,62,STUDY,8,8,,Study/JOL,"Study Phase2",8001,,,-1,-1,,,,1
m20308741,vrihsvcpzu,Nick_Dissertation_EX2_EP_MSU_TEXAS,1,134,2022-10-22T17:45:54+00:00,8.1623690128326,5,Pure_Unrelated.csv,READVersionA.csv,"Read Pure U A","Read Pure U A",FLOOR,DISCOVER,Study2,U,101,59,STUDY,8,8,,Study/JOL,"Study Phase2",8000,,,-1,-1,,,,1
m20308741,vrihsvcpzu,Nick_Dissertation_EX2_EP_MSU_TEXAS,1,135,2022-10-22T17:46:02+00:00,8.1638140678406,5,Pure_Unrelated.csv,READVersionA.csv,"Read Pure U A","Read Pure U A",ROAD,SCENT,Study2,U,166,93,STUDY,8,8,,Study/JOL,"Study Phase2",8001,,,-1,-1,,,,1
m20308741,vrihsvcpzu,Nick_Dissertation_EX2_EP_MSU_TEXAS,1,136,2022-10-22T17:46:10+00:00,8.1657769680023,5,Pure_Unrelated.csv,READVersionA.csv,"Read Pure U A","Read Pure U A",WOMAN,LIFT,Study2,U,99,63,STUDY,8,8,,Study/JOL,"Study Phase2",8001,,,-1,-1,,,,1
m20308741,vrihsvcpzu,Nick_Dissertation_EX2_EP_MSU_TEXAS,1,137,2022-10-22T17:46:18+00:00,8.1709048748016,5,Pure_Unrelated.csv,READVersionA.csv,"Read Pure U A","Read Pure U A",LAKE,OPINION,Study2,U,160,94,STUDY,8,8,,Study/JOL,"Study Phase2",8001,,,-1,-1,,,,1
m20308741,vrihsvcpzu,Nick_Dissertation_EX2_EP_MSU_TEXAS,1,138,2022-10-22T17:46:26+00:00,8.166836977005,5,Pure_Unrelated.csv,READVersionA.csv,"Read Pure U A","Read Pure U A",SWING,FOG,Study2,U,175,64,STUDY,8,8,,Study/JOL,"Study Phase2",8000,,,-1,-1,,,,1
m20308741,vrihsvcpzu,Nick_Dissertation_EX2_EP_MSU_TEXAS,1,139,2022-10-22T17:46:35+00:00,8.1660211086273,5,Pure_Unrelated.csv,READVersionA.csv,"Read Pure U A","Read Pure U A",NULL,COUGH,Study2,U,156,85,STUDY,8,8,,Study/JOL,"Study Phase2",8001,,,-1,-1,,,,1
m20308741,vrihsvcpzu,Nick_Dissertation_EX2_EP_MSU_TEXAS,1,140,2022-10-22T17:46:43+00:00,8.1716101169586,5,Pure_Unrelated.csv,READVersionA.csv,"Read Pure U A","Read Pure U A",FLOAT,HARMONY,Study2,U,161,71,STUDY,8,8,,Study/JOL,"Study Phase2",8000,,,-1,-1,,,,1
m20308741,vrihsvcpzu,Nick_Dissertation_EX2_EP_MSU_TEXAS,1,141,2022-10-22T17:46:51+00:00,8.1673629283905,5,Pure_Unrelated.csv,READVersionA.csv,"Read Pure U A","Read Pure U A",DAYS,WEEKS,BUFFER4,Buffer,176,97,STUDY,8,8,,Study/JOL,BUFFER4,8002,,,-1,-1,,,,1
m20308741,vrihsvcpzu,Nick_Dissertation_EX2_EP_MSU_TEXAS,1,142,2022-10-22T17:46:59+00:00,8.1897208690643,5,Pure_Unrelated.csv,READVersionA.csv,"Read Pure U A","Read Pure U A",TOOL,SHED,BUFFER4,Buffer,178,99,STUDY,8,8,,Study/JOL,BUFFER4,8000,,,-1,-1,,,,1
m20308741,vrihsvcpzu,Nick_Dissertation_EX2_EP_MSU_TEXAS,1,143,2022-10-22T17:47:07+00:00,8.1620671749115,5,Pure_Unrelated.csv,READVersionA.csv,"Read Pure U A","Read Pure U A",SPRING,MARCH,BUFFER4,Buffer,179,98,STUDY,8,8,,Study/JOL,BUFFER4,8002,,,-1,-1,,,,1
m20308741,vrihsvcpzu,Nick_Dissertation_EX2_EP_MSU_TEXAS,1,144,2022-10-22T17:47:15+00:00,8.1628370285034,5,Pure_Unrelated.csv,READVersionA.csv,"Read Pure U A","Read Pure U A",MONTH,YEAR,BUFFER4,Buffer,177,100,STUDY,8,8,,Study/JOL,BUFFER4,8000,,,-1,-1,,,,1
m20308741,vrihsvcpzu,Nick_Dissertation_EX2_EP_MSU_TEXAS,1,145,2022-10-22T17:47:24+00:00,8.1704947948456,5,Pure_Unrelated.csv,READVersionA.csv,"Read Pure U A","Read Pure U A",OCTOBER,SPOOKY,BUFFER4,Buffer,180,101,STUDY,8,8,,Study/JOL,BUFFER4,8001,,,-1,-1,,,,1
m20308741,vrihsvcpzu,Nick_Dissertation_EX2_EP_MSU_TEXAS,1,146,2022-10-22T17:47:34+00:00,10.721096038818,5,Pure_Unrelated.csv,READVersionA.csv,"Read Pure U A","Read Pure U A",,,,,,0,Instruct,User,-,"You have completed this section. Please press Enter.",Filler_Instruction,Instruct5,10494,,,-1,-1,,,,1
m20308741,vrihsvcpzu,Nick_Dissertation_EX2_EP_MSU_TEXAS,1,147,2022-10-22T17:49:35+00:00,120.31327199936,5,Pure_Unrelated.csv,READVersionA.csv,"Read Pure U A","Read Pure U A",,,,,,0,FreeRecall,120,120,"Please list the 50 US states in reverse alphabetical order (z - a). The task will automatically advance to the next screen after two minutes.",,Filler2,120001," Wyoming 99.3% Wisconsin 93.2% West Virginia 92.6% Washington 91.2% Virginia Vermont Utah Texas Tennessee South Dakota South Carolina Rhode Island Pennsylvania Oregon Oklahoma Ohio North Dakota North Carolina New York New Mexico New Jersey New Hampshire Nevada Missouri Mississippi ",0,7651,69590,0,0,,0.947
m20308741,vrihsvcpzu,Nick_Dissertation_EX2_EP_MSU_TEXAS,1,148,2022-10-22T17:49:46+00:00,11.170969009399,5,Pure_Unrelated.csv,READVersionA.csv,"Read Pure U A","Read Pure U A",,,,,,0,Instruct,-,10,"You will now be presented with the first word from each of the previously studied item pairs. Please type the missing word. If you do not know the word, you may guess or press Enter to skip forward to the next pair.",,Instruct6,10991,,,-1,-1,,,,1
m20308741,vrihsvcpzu,Nick_Dissertation_EX2_EP_MSU_TEXAS,1,149,2022-10-22T17:49:53+00:00,7.0494699478149,5,Pure_Unrelated.csv,READVersionA.csv,"Read Pure U A","Read Pure U A",VASE,KING,Study2,U,115,78,Test,User,-,,Recall,Recall2,6886,flower,0,1956,5535,0,0,,1
m20308741,vrihsvcpzu,Nick_Dissertation_EX2_EP_MSU_TEXAS,1,150,2022-10-22T17:49:56+00:00,3.0002961158752,5,Pure_Unrelated.csv,READVersionA.csv,"Read Pure U A","Read Pure U A",SACKING,DIETARY,Study2,U,97,60,Test,User,-,,Recall,Recall2,2831,ball,18.181818181818,1888,2462,0,0,,1
m20308741,vrihsvcpzu,Nick_Dissertation_EX2_EP_MSU_TEXAS,1,151,2022-10-22T17:49:59+00:00,2.9119260311127,5,Pure_Unrelated.csv,READVersionA.csv,"Read Pure U A","Read Pure U A",BELT,SOON,Study2,U,100,65,Test,User,-,,Recall,Recall2,2752,whi[,0,1806,2320,0,0,,1
m20308741,vrihsvcpzu,Nick_Dissertation_EX2_EP_MSU_TEXAS,1,152,2022-10-22T17:50:01+00:00,2.5646548271179,5,Pure_Unrelated.csv,READVersionA.csv,"Read Pure U A","Read Pure U A",STOMACH,TOWN,Study2,U,159,96,Test,User,-,,Recall,Recall2,2415,ache,0,1416,2027,0,0,,1
m20308741,vrihsvcpzu,Nick_Dissertation_EX2_EP_MSU_TEXAS,1,153,2022-10-22T17:50:04+00:00,2.9602091312408,5,Pure_Unrelated.csv,READVersionA.csv,"Read Pure U A","Read Pure U A",FLOAT,HARMONY,Study2,U,161,71,Test,User,-,,Recall,Recall2,2794,above,33.333333333333,1586,2490,0,0,,1
m20308741,vrihsvcpzu,Nick_Dissertation_EX2_EP_MSU_TEXAS,1,154,2022-10-22T17:50:07+00:00,2.3407709598541,5,Pure_Unrelated.csv,READVersionA.csv,"Read Pure U A","Read Pure U A",TUCK,ALLOW,Study2,U,108,86,Test,User,-,,Recall,Recall2,2182,roll,44.444444444444,1297,1816,0,0,,1
m20308741,vrihsvcpzu,Nick_Dissertation_EX2_EP_MSU_TEXAS,1,155,2022-10-22T17:50:09+00:00,2.4134731292725,5,Pure_Unrelated.csv,READVersionA.csv,"Read Pure U A","Read Pure U A",LION,ART,Study2,U,109,81,Test,User,-,,Recall,Recall2,2260,pride,25,1151,1926,0,0,,1
m20308741,vrihsvcpzu,Nick_Dissertation_EX2_EP_MSU_TEXAS,1,156,2022-10-22T17:50:11+00:00,1.7880799770355,5,Pure_Unrelated.csv,READVersionA.csv,"Read Pure U A","Read Pure U A",RIDDLE,SUGAR,Study2,U,111,95,Test,User,-,,Recall,Recall2,1629,me,0,1154,1277,0,0,,1
m20308741,vrihsvcpzu,Nick_Dissertation_EX2_EP_MSU_TEXAS,1,157,2022-10-22T17:50:18+00:00,6.831699848175,5,Pure_Unrelated.csv,READVersionA.csv,"Read Pure U A","Read Pure U A",WOMAN,LIFT,Study2,U,99,63,Test,User,-,,Recall,Recall2,6689,independence,12.5,2152,6242,0,0,,1
m20308741,vrihsvcpzu,Nick_Dissertation_EX2_EP_MSU_TEXAS,1,158,2022-10-22T17:50:22+00:00,3.9750461578369,5,Pure_Unrelated.csv,READVersionA.csv,"Read Pure U A","Read Pure U A",DETECT,FREE,Study2,U,162,74,Test,User,-,,Recall,Recall2,3814,cover,22.222222222222,2806,3575,0,0,,1
m20308741,vrihsvcpzu,Nick_Dissertation_EX2_EP_MSU_TEXAS,1,159,2022-10-22T17:50:25+00:00,3.2115259170532,5,Pure_Unrelated.csv,READVersionA.csv,"Read Pure U A","Read Pure U A",SIGHT,DEBATE,Study2,U,103,84,Test,User,-,,Recall,Recall2,3050,eye,44.444444444444,2184,2401,0,0,,1
m20308741,vrihsvcpzu,Nick_Dissertation_EX2_EP_MSU_TEXAS,1,160,2022-10-22T17:50:28+00:00,3.1119520664215,5,Pure_Unrelated.csv,READVersionA.csv,"Read Pure U A","Read Pure U A",READY,CORN,Study2,U,158,87,Test,User,-,,Recall,Recall2,2956,"set gp",0,1524,2529,0,0,,1
m20308741,vrihsvcpzu,Nick_Dissertation_EX2_EP_MSU_TEXAS,1,161,2022-10-22T17:50:40+00:00,11.844636917114,5,Pure_Unrelated.csv,READVersionA.csv,"Read Pure U A","Read Pure U A",FLOOR,DISCOVER,Study2,U,101,59,Test,User,-,,Recall,Recall2,11675,dirty,46.153846153846,10632,11209,0,0,,1
m20308741,vrihsvcpzu,Nick_Dissertation_EX2_EP_MSU_TEXAS,1,162,2022-10-22T17:50:43+00:00,3.0455229282379,5,Pure_Unrelated.csv,READVersionA.csv,"Read Pure U A","Read Pure U A",ROAD,SCENT,Study2,U,166,93,Test,User,-,,Recall,Recall2,2792,kill,0,1884,2439,0,0,,1
m20308741,vrihsvcpzu,Nick_Dissertation_EX2_EP_MSU_TEXAS,1,163,2022-10-22T17:50:47+00:00,4.1270151138306,5,Pure_Unrelated.csv,READVersionA.csv,"Read Pure U A","Read Pure U A",SPELL,BONE,Study2,U,174,80,Test,User,-,,Recall,Recall2,3974,word,25,2569,3489,0,0,,1
m20308741,vrihsvcpzu,Nick_Dissertation_EX2_EP_MSU_TEXAS,1,164,2022-10-22T17:50:52+00:00,5.4849588871002,5,Pure_Unrelated.csv,READVersionA.csv,"Read Pure U A","Read Pure U A",FLOOR,DISCOVER,Study2,U,101,59,Test,User,-,,Recall,Recall2,5327,wall,0,4399,4867,0,0,,1
m20308741,vrihsvcpzu,Nick_Dissertation_EX2_EP_MSU_TEXAS,1,165,2022-10-22T17:50:57+00:00,4.1807501316071,5,Pure_Unrelated.csv,READVersionA.csv,"Read Pure U A","Read Pure U A",SICK,HIDE,Study2,U,114,79,Test,User,-,,Recall,Recall2,4029,person,20,2565,3612,0,0,,1
m20308741,vrihsvcpzu,Nick_Dissertation_EX2_EP_MSU_TEXAS,1,166,2022-10-22T17:51:00+00:00,3.3344478607178,5,Pure_Unrelated.csv,READVersionA.csv,"Read Pure U A","Read Pure U A",ACCIDENT,STRONG,Study2,U,110,67,Test,User,-,,Recall,Recall2,3179,car,22.222222222222,2141,2803,0,0,,1
m20308741,vrihsvcpzu,Nick_Dissertation_EX2_EP_MSU_TEXAS,1,167,2022-10-22T17:51:02+00:00,2.1348021030426,5,Pure_Unrelated.csv,READVersionA.csv,"Read Pure U A","Read Pure U A",JELLY,NAUGHTY,Study2,U,172,90,Test,User,-,,Recall,Recall2,1977,jam,20,1287,1552,0,0,,1
m20308741,vrihsvcpzu,Nick_Dissertation_EX2_EP_MSU_TEXAS,1,168,2022-10-22T17:51:07+00:00,4.4469509124756,5,Pure_Unrelated.csv,READVersionA.csv,"Read Pure U A","Read Pure U A",HUNGRY,PARK,Study2,U,98,70,Test,User,-,,Recall,Recall2,4290,starving,33.333333333333,2148,3982,0,0,,1
m20308741,vrihsvcpzu,Nick_Dissertation_EX2_EP_MSU_TEXAS,1,169,2022-10-22T17:51:11+00:00,3.98188996315,5,Pure_Unrelated.csv,READVersionA.csv,"Read Pure U A","Read Pure U A",DESIRE,NOISE,Study2,U,169,62,Test,User,-,,Recall,Recall2,3830,plead,20,2332,3575,0,0,,1
m20308741,vrihsvcpzu,Nick_Dissertation_EX2_EP_MSU_TEXAS,1,170,2022-10-22T17:51:13+00:00,2.1022469997406,5,Pure_Unrelated.csv,READVersionA.csv,"Read Pure U A","Read Pure U A",WARN,SEA,Study1,U,80,23,Test,User,-,,Recall,Recall2,1947,,0,-1,-1,0,0,,1
m20308741,vrihsvcpzu,Nick_Dissertation_EX2_EP_MSU_TEXAS,1,171,2022-10-22T17:51:13+00:00,0.62386202812195,5,Pure_Unrelated.csv,READVersionA.csv,"Read Pure U A","Read Pure U A",ZOO,THUMB,Study2,U,168,91,Test,User,-,,Recall,Recall2,462,,0,-1,-1,0,0,,1
m20308741,vrihsvcpzu,Nick_Dissertation_EX2_EP_MSU_TEXAS,1,172,2022-10-22T17:51:13+00:00,0.23748707771301,5,Pure_Unrelated.csv,READVersionA.csv,"Read Pure U A","Read Pure U A",PUT,ROLL,Study2,U,163,77,Test,User,-,,Recall,Recall2,87,,0,-1,-1,0,0,,1
m20308741,vrihsvcpzu,Nick_Dissertation_EX2_EP_MSU_TEXAS,1,173,2022-10-22T17:51:14+00:00,0.29924893379211,5,Pure_Unrelated.csv,READVersionA.csv,"Read Pure U A","Read Pure U A",SLIM,KNOW,Study2,U,164,68,Test,User,-,,Recall,Recall2,149,,0,-1,-1,0,0,,1
m20308741,vrihsvcpzu,Nick_Dissertation_EX2_EP_MSU_TEXAS,1,174,2022-10-22T17:51:14+00:00,0.36877012252808,5,Pure_Unrelated.csv,READVersionA.csv,"Read Pure U A","Read Pure U A",PUFF,NUMBER,Study2,U,171,92,Test,User,-,,Recall,Recall2,218,,0,-1,-1,0,0,,1
m20308741,vrihsvcpzu,Nick_Dissertation_EX2_EP_MSU_TEXAS,1,175,2022-10-22T17:51:15+00:00,0.35740089416504,5,Pure_Unrelated.csv,READVersionA.csv,"Read Pure U A","Read Pure U A",CLUTTER,PUSHER,Study2,U,96,73,Test,User,-,,Recall,Recall2,196,,0,-1,-1,0,0,,1
m20308741,vrihsvcpzu,Nick_Dissertation_EX2_EP_MSU_TEXAS,1,176,2022-10-22T17:51:15+00:00,0.4417610168457,5,Pure_Unrelated.csv,READVersionA.csv,"Read Pure U A","Read Pure U A",SWING,FOG,Study2,U,175,64,Test,User,-,,Recall,Recall2,290,,0,-1,-1,0,0,,1
m20308741,vrihsvcpzu,Nick_Dissertation_EX2_EP_MSU_TEXAS,1,177,2022-10-22T17:51:15+00:00,0.40761804580688,5,Pure_Unrelated.csv,READVersionA.csv,"Read Pure U A","Read Pure U A",SYSTEM,LICK,Study2,U,167,69,Test,User,-,,Recall,Recall2,251,,0,-1,-1,0,0,,1
m20308741,vrihsvcpzu,Nick_Dissertation_EX2_EP_MSU_TEXAS,1,178,2022-10-22T17:51:21+00:00,5.9313530921936,5,Pure_Unrelated.csv,READVersionA.csv,"Read Pure U A","Read Pure U A",ADD,VALLEY,Study2,U,112,89,Test,User,-,,Recall,Recall2,5555,chair,18.181818181818,2565,5234,0,0,,1
m20308741,vrihsvcpzu,Nick_Dissertation_EX2_EP_MSU_TEXAS,1,179,2022-10-22T17:51:26+00:00,4.8176229000092,5,Pure_Unrelated.csv,READVersionA.csv,"Read Pure U A","Read Pure U A",GUARD,WHEEL,Study2,U,170,82,Test,User,-,,Recall,Recall2,4659,person,18.181818181818,1978,4328,0,0,,1
m20308741,vrihsvcpzu,Nick_Dissertation_EX2_EP_MSU_TEXAS,1,180,2022-10-22T17:51:33+00:00,6.6337308883667,5,Pure_Unrelated.csv,READVersionA.csv,"Read Pure U A","Read Pure U A",NULL,COUGH,Study2,U,156,85,Test,User,-,,Recall,Recall2,6474,yfy,0,1614,6069,0,0,,1
m20308741,vrihsvcpzu,Nick_Dissertation_EX2_EP_MSU_TEXAS,1,181,2022-10-22T17:51:36+00:00,3.2008121013641,5,Pure_Unrelated.csv,READVersionA.csv,"Read Pure U A","Read Pure U A",CAR,HAPPY,Study2,U,107,72,Test,User,-,,Recall,Recall2,3046,batteru,16.666666666667,1838,2665,0,0,,1
m20308741,vrihsvcpzu,Nick_Dissertation_EX2_EP_MSU_TEXAS,1,182,2022-10-22T17:51:42+00:00,5.7416779994965,5,Pure_Unrelated.csv,READVersionA.csv,"Read Pure U A","Read Pure U A",SMOOTH,OMIT,Study2,U,157,66,Test,User,-,,Recall,Recall2,5570,tie,28.571428571429,2683,5162,0,0,,1
m20308741,vrihsvcpzu,Nick_Dissertation_EX2_EP_MSU_TEXAS,1,183,2022-10-22T17:51:51+00:00,9.2468299865723,5,Pure_Unrelated.csv,READVersionA.csv,"Read Pure U A","Read Pure U A",BRONZE,ARTERY,Study2,U,104,76,Test,User,-,,Recall,Recall2,9083,artery,100,5208,8660,1,1,,1
m20308741,vrihsvcpzu,Nick_Dissertation_EX2_EP_MSU_TEXAS,1,184,2022-10-22T17:51:54+00:00,3.5054020881653,5,Pure_Unrelated.csv,READVersionA.csv,"Read Pure U A","Read Pure U A",WASTE,SEDATE,Study2,U,165,88,Test,User,-,,Recall,Recall2,3346,product,30.769230769231,1830,3001,0,0,,1
m20308741,vrihsvcpzu,Nick_Dissertation_EX2_EP_MSU_TEXAS,1,185,2022-10-22T17:51:57+00:00,2.4166789054871,5,Pure_Unrelated.csv,READVersionA.csv,"Read Pure U A","Read Pure U A",Business,Death,Study2,U,102,57,Test,User,-,,Recall,Recall2,2266,card,22.222222222222,1669,2054,0,0,,1
m20308741,vrihsvcpzu,Nick_Dissertation_EX2_EP_MSU_TEXAS,1,186,2022-10-22T17:52:00+00:00,2.9140479564667,5,Pure_Unrelated.csv,READVersionA.csv,"Read Pure U A","Read Pure U A",POSITION,MACHINE,Study2,U,106,75,Test,User,-,,Recall,Recall2,2762,player,30.769230769231,1771,2556,0,0,,1
m20308741,vrihsvcpzu,Nick_Dissertation_EX2_EP_MSU_TEXAS,1,187,2022-10-22T17:52:03+00:00,3.3859651088715,5,Pure_Unrelated.csv,READVersionA.csv,"Read Pure U A","Read Pure U A",LAKE,OPINION,Study2,U,160,94,Test,User,-,,Recall,Recall2,3182,tahoe,16.666666666667,1889,2785,0,0,,1
m20308741,vrihsvcpzu,Nick_Dissertation_EX2_EP_MSU_TEXAS,1,188,2022-10-22T17:52:07+00:00,3.6690599918365,5,Pure_Unrelated.csv,READVersionA.csv,"Read Pure U A","Read Pure U A",MUTE,WAVE,Study2,U,173,61,Test,User,-,,Recall,Recall2,3512,button,0,1946,3167,0,0,,1
m20308741,vrihsvcpzu,Nick_Dissertation_EX2_EP_MSU_TEXAS,1,189,2022-10-22T17:52:09+00:00,1.700807094574,5,Pure_Unrelated.csv,READVersionA.csv,"Read Pure U A","Read Pure U A",,,,,,0,Instruct,User,-,"You have completed this section. Please press Enter.",,Instruct7,1544,,,-1,-1,,,,1
m20308741,vrihsvcpzu,Nick_Dissertation_EX2_EP_MSU_TEXAS,1,190,2022-10-22T17:52:10+00:00,1.2601637840271,5,Pure_Unrelated.csv,READVersionA.csv,"Read Pure U A","Read Pure U A",,,,,,0,Instruct,User,-,"The following screen will ask you a few questions abour your experience today. You must complete these questions to receive credit.",,Instruct8,1064,,,-1,-1,,,,1
