Username,ID,ExperimentName,Session,Trial,Date,TimeDif,"Condition Number","Stimuli File","Order File","Condition Description","Condition Notes",Stimuli*Cue,Stimuli*Answer,Stimuli*Shuffle,"Stimuli*Stimuli Notes",Stimuli*Value,Procedure*Item,"Procedure*Trial Type","Procedure*Max Time","Procedure*Min Time",Procedure*Text,"Procedure*Procedure Notes",Procedure*Shuffle,Response*RT,Response*Response,Response*Accuracy,Response*RTfirst,Response*RTlast,Response*strictAcc,Response*lenientAcc,Response*focus,Response*Focus
10113024,wvy4uhfk14,Nick_Dissertation_EX2_EP,1,1,2022-01-04T17:50:48+00:00,11.201800107956,2,Mixed_Stim.csv,READVersionB.csv,"Read Mixed B","Read Mixed B",,,,,,0,Instruct,-,10,"Please study each of the following word pairs. Remember that your memory will be tested! Each pair will be displayed on the computer screen and will automatically advance to the next pair. Press ENTER when you are ready to begin.",Initial_Instruct,Instruct1,11106,,,-1,-1,,,,1
10113024,wvy4uhfk14,Nick_Dissertation_EX2_EP,1,2,2022-01-04T17:50:56+00:00,8.1470928192139,2,Mixed_Stim.csv,READVersionB.csv,"Read Mixed B","Read Mixed B",SHRIMP,FISH,BUFFER3,Buffer,93,52,STUDY,8,8,,Study/JOL,BUFFER,8002,,,-1,-1,,,,1
10113024,wvy4uhfk14,Nick_Dissertation_EX2_EP,1,3,2022-01-04T17:51:04+00:00,8.1437411308289,2,Mixed_Stim.csv,READVersionB.csv,"Read Mixed B","Read Mixed B",CARROT,POTATO,BUFFER3,Buffer,91,56,STUDY,8,8,,Study/JOL,BUFFER,8003,,,-1,-1,,,,1
10113024,wvy4uhfk14,Nick_Dissertation_EX2_EP,1,4,2022-01-04T17:51:12+00:00,8.1407740116119,2,Mixed_Stim.csv,READVersionB.csv,"Read Mixed B","Read Mixed B",CAMP,ADVENTURE,BUFFER3,Buffer,95,55,STUDY,8,8,,Study/JOL,BUFFER,8001,,,-1,-1,,,,1
10113024,wvy4uhfk14,Nick_Dissertation_EX2_EP,1,5,2022-01-04T17:51:21+00:00,8.1456489562988,2,Mixed_Stim.csv,READVersionB.csv,"Read Mixed B","Read Mixed B",ICE,FROZEN,BUFFER3,Buffer,94,54,STUDY,8,8,,Study/JOL,BUFFER,8002,,,-1,-1,,,,1
10113024,wvy4uhfk14,Nick_Dissertation_EX2_EP,1,6,2022-01-04T17:51:29+00:00,8.146959066391,2,Mixed_Stim.csv,READVersionB.csv,"Read Mixed B","Read Mixed B",NOODLE,STRING,BUFFER3,Buffer,92,53,STUDY,8,8,,Study/JOL,BUFFER,8001,,,-1,-1,,,,1
10113024,wvy4uhfk14,Nick_Dissertation_EX2_EP,1,7,2022-01-04T17:51:37+00:00,8.217591047287,2,Mixed_Stim.csv,READVersionB.csv,"Read Mixed B","Read Mixed B",CLUE,GAME,Study2,F,97,73,STUDY,8,8,,Study/JOL,"Study Phase",8001,,,-1,-1,,,,1
10113024,wvy4uhfk14,Nick_Dissertation_EX2_EP,1,8,2022-01-04T17:51:45+00:00,8.2814359664917,2,Mixed_Stim.csv,READVersionB.csv,"Read Mixed B","Read Mixed B",STRETCH,CLOTH,Study2,U,157,77,STUDY,8,8,,Study/JOL,"Study Phase",8002,,,-1,-1,,,,1
10113024,wvy4uhfk14,Nick_Dissertation_EX2_EP,1,9,2022-01-04T17:51:53+00:00,8.1487228870392,2,Mixed_Stim.csv,READVersionB.csv,"Read Mixed B","Read Mixed B",BOTH,OUNCE,Study2,U,172,81,STUDY,8,8,,Study/JOL,"Study Phase",8002,,,-1,-1,,,,1
10113024,wvy4uhfk14,Nick_Dissertation_EX2_EP,1,10,2022-01-04T17:52:01+00:00,8.1475710868835,2,Mixed_Stim.csv,READVersionB.csv,"Read Mixed B","Read Mixed B",NAME,HATE,Study2,U,167,85,STUDY,8,8,,Study/JOL,"Study Phase",8010,,,-1,-1,,,,1
10113024,wvy4uhfk14,Nick_Dissertation_EX2_EP,1,11,2022-01-04T17:52:10+00:00,8.142646074295,2,Mixed_Stim.csv,READVersionB.csv,"Read Mixed B","Read Mixed B",CAKE,CLOTHES,Study2,U,166,82,STUDY,8,8,,Study/JOL,"Study Phase",8003,,,-1,-1,,,,1
10113024,wvy4uhfk14,Nick_Dissertation_EX2_EP,1,12,2022-01-04T17:52:18+00:00,8.1451649665833,2,Mixed_Stim.csv,READVersionB.csv,"Read Mixed B","Read Mixed B",INCENSE,SMELL,Study2,F,110,90,STUDY,8,8,,Study/JOL,"Study Phase",8001,,,-1,-1,,,,1
10113024,wvy4uhfk14,Nick_Dissertation_EX2_EP,1,13,2022-01-04T17:52:26+00:00,8.1474709510803,2,Mixed_Stim.csv,READVersionB.csv,"Read Mixed B","Read Mixed B",EXTENSION,LONG,Study2,F,96,59,STUDY,8,8,,Study/JOL,"Study Phase",8008,,,-1,-1,,,,1
10113024,wvy4uhfk14,Nick_Dissertation_EX2_EP,1,14,2022-01-04T17:52:34+00:00,8.1401970386505,2,Mixed_Stim.csv,READVersionB.csv,"Read Mixed B","Read Mixed B",FUZZY,BANG,Study2,U,168,70,STUDY,8,8,,Study/JOL,"Study Phase",8004,,,-1,-1,,,,1
10113024,wvy4uhfk14,Nick_Dissertation_EX2_EP,1,15,2022-01-04T17:52:42+00:00,8.140398979187,2,Mixed_Stim.csv,READVersionB.csv,"Read Mixed B","Read Mixed B",EXTENSION,LONG,Study2,F,96,59,STUDY,8,8,,Study/JOL,"Study Phase",8003,,,-1,-1,,,,1
10113024,wvy4uhfk14,Nick_Dissertation_EX2_EP,1,16,2022-01-04T17:52:50+00:00,8.1494140625,2,Mixed_Stim.csv,READVersionB.csv,"Read Mixed B","Read Mixed B",MULE,DONKEY,Study2,F,108,66,STUDY,8,8,,Study/JOL,"Study Phase",8005,,,-1,-1,,,,0.897
10113024,wvy4uhfk14,Nick_Dissertation_EX2_EP,1,17,2022-01-04T17:52:58+00:00,8.1548178195953,2,Mixed_Stim.csv,READVersionB.csv,"Read Mixed B","Read Mixed B",CACTUS,PLANT,Study2,F,98,75,STUDY,8,8,,Study/JOL,"Study Phase",8002,,,-1,-1,,,,1
10113024,wvy4uhfk14,Nick_Dissertation_EX2_EP,1,18,2022-01-04T17:53:07+00:00,8.1509280204773,2,Mixed_Stim.csv,READVersionB.csv,"Read Mixed B","Read Mixed B",DETECTIVE,MYSTERY,Study2,F,100,67,STUDY,8,8,,Study/JOL,"Study Phase",8008,,,-1,-1,,,,0.897
10113024,wvy4uhfk14,Nick_Dissertation_EX2_EP,1,19,2022-01-04T17:53:15+00:00,8.1626360416412,2,Mixed_Stim.csv,READVersionB.csv,"Read Mixed B","Read Mixed B",VEHICLE,CHARM,Study2,U,160,69,STUDY,8,8,,Study/JOL,"Study Phase",8008,,,-1,-1,,,,0.939
10113024,wvy4uhfk14,Nick_Dissertation_EX2_EP,1,20,2022-01-04T17:53:23+00:00,8.1608259677887,2,Mixed_Stim.csv,READVersionB.csv,"Read Mixed B","Read Mixed B",SHOELACE,TIE,Study2,F,99,94,STUDY,8,8,,Study/JOL,"Study Phase",8002,,,-1,-1,,,,1
10113024,wvy4uhfk14,Nick_Dissertation_EX2_EP,1,21,2022-01-04T17:53:31+00:00,8.1455681324005,2,Mixed_Stim.csv,READVersionB.csv,"Read Mixed B","Read Mixed B",TEMPERATURE,Morning,Study2,U,173,72,STUDY,8,8,,Study/JOL,"Study Phase",8002,,,-1,-1,,,,1
10113024,wvy4uhfk14,Nick_Dissertation_EX2_EP,1,22,2022-01-04T17:53:39+00:00,8.1481637954712,2,Mixed_Stim.csv,READVersionB.csv,"Read Mixed B","Read Mixed B",MAZE,ELECTION,Study2,U,159,80,STUDY,8,8,,Study/JOL,"Study Phase",8002,,,-1,-1,,,,1
10113024,wvy4uhfk14,Nick_Dissertation_EX2_EP,1,23,2022-01-04T17:53:47+00:00,8.1438992023468,2,Mixed_Stim.csv,READVersionB.csv,"Read Mixed B","Read Mixed B",GIVE,STEAK,Study2,U,158,71,STUDY,8,8,,Study/JOL,"Study Phase",8003,,,-1,-1,,,,1
10113024,wvy4uhfk14,Nick_Dissertation_EX2_EP,1,24,2022-01-04T17:53:56+00:00,8.145525932312,2,Mixed_Stim.csv,READVersionB.csv,"Read Mixed B","Read Mixed B",DRIVER,CAR,Study2,F,106,86,STUDY,8,8,,Study/JOL,"Study Phase",8002,,,-1,-1,,,,1
10113024,wvy4uhfk14,Nick_Dissertation_EX2_EP,1,25,2022-01-04T17:54:04+00:00,8.1431639194489,2,Mixed_Stim.csv,READVersionB.csv,"Read Mixed B","Read Mixed B",KEYS,JOKE,Study2,U,165,64,STUDY,8,8,,Study/JOL,"Study Phase",8001,,,-1,-1,,,,1
10113024,wvy4uhfk14,Nick_Dissertation_EX2_EP,1,26,2022-01-04T17:54:12+00:00,8.1379721164703,2,Mixed_Stim.csv,READVersionB.csv,"Read Mixed B","Read Mixed B",ADJOURN,END,Study2,F,101,78,STUDY,8,8,,Study/JOL,"Study Phase",8002,,,-1,-1,,,,1
10113024,wvy4uhfk14,Nick_Dissertation_EX2_EP,1,27,2022-01-04T17:54:20+00:00,8.1421599388123,2,Mixed_Stim.csv,READVersionB.csv,"Read Mixed B","Read Mixed B",MIRROR,CHILDREN,Study2,U,174,89,STUDY,8,8,,Study/JOL,"Study Phase",8002,,,-1,-1,,,,1
10113024,wvy4uhfk14,Nick_Dissertation_EX2_EP,1,28,2022-01-04T17:54:28+00:00,8.1458809375763,2,Mixed_Stim.csv,READVersionB.csv,"Read Mixed B","Read Mixed B",Shell,SHAKE,Study2,U,163,68,STUDY,8,8,,Study/JOL,"Study Phase",8002,,,-1,-1,,,,1
10113024,wvy4uhfk14,Nick_Dissertation_EX2_EP,1,29,2022-01-04T17:54:36+00:00,8.1803891658783,2,Mixed_Stim.csv,READVersionB.csv,"Read Mixed B","Read Mixed B",AFFECTION,LOVE,Study2,F,115,91,STUDY,8,8,,Study/JOL,"Study Phase",8002,,,-1,-1,,,,1
10113024,wvy4uhfk14,Nick_Dissertation_EX2_EP,1,30,2022-01-04T17:54:44+00:00,8.1935739517212,2,Mixed_Stim.csv,READVersionB.csv,"Read Mixed B","Read Mixed B",MOAT,CLEAR,Study2,U,169,79,STUDY,8,8,,Study/JOL,"Study Phase",8002,,,-1,-1,,,,1
10113024,wvy4uhfk14,Nick_Dissertation_EX2_EP,1,31,2022-01-04T17:54:53+00:00,8.1469588279724,2,Mixed_Stim.csv,READVersionB.csv,"Read Mixed B","Read Mixed B",MAIN,SCAR,Study2,U,175,57,STUDY,8,8,,Study/JOL,"Study Phase",8002,,,-1,-1,,,,1
10113024,wvy4uhfk14,Nick_Dissertation_EX2_EP,1,32,2022-01-04T17:55:01+00:00,8.1498551368713,2,Mixed_Stim.csv,READVersionB.csv,"Read Mixed B","Read Mixed B",LITTER,TRASH,Study2,F,103,61,STUDY,8,8,,Study/JOL,"Study Phase",8002,,,-1,-1,,,,1
10113024,wvy4uhfk14,Nick_Dissertation_EX2_EP,1,33,2022-01-04T17:55:09+00:00,8.1535129547119,2,Mixed_Stim.csv,READVersionB.csv,"Read Mixed B","Read Mixed B",CHOP,CUT,Study2,F,107,84,STUDY,8,8,,Study/JOL,"Study Phase",8002,,,-1,-1,,,,1
10113024,wvy4uhfk14,Nick_Dissertation_EX2_EP,1,34,2022-01-04T17:55:17+00:00,8.1439199447632,2,Mixed_Stim.csv,READVersionB.csv,"Read Mixed B","Read Mixed B",LISTEN,FICTION,Study2,U,164,96,STUDY,8,8,,Study/JOL,"Study Phase",8002,,,-1,-1,,,,1
10113024,wvy4uhfk14,Nick_Dissertation_EX2_EP,1,35,2022-01-04T17:55:25+00:00,8.1461501121521,2,Mixed_Stim.csv,READVersionB.csv,"Read Mixed B","Read Mixed B",CHILL,COLD,Study2,F,114,93,STUDY,8,8,,Study/JOL,"Study Phase",8003,,,-1,-1,,,,1
10113024,wvy4uhfk14,Nick_Dissertation_EX2_EP,1,36,2022-01-04T17:55:33+00:00,8.1405918598175,2,Mixed_Stim.csv,READVersionB.csv,"Read Mixed B","Read Mixed B",JUSTICE,MAROON,Study2,U,156,95,STUDY,8,8,,Study/JOL,"Study Phase",8002,,,-1,-1,,,,1
10113024,wvy4uhfk14,Nick_Dissertation_EX2_EP,1,37,2022-01-04T17:55:42+00:00,8.1468920707703,2,Mixed_Stim.csv,READVersionB.csv,"Read Mixed B","Read Mixed B",FURRY,DOG,Study2,F,102,62,STUDY,8,8,,Study/JOL,"Study Phase",8002,,,-1,-1,,,,1
10113024,wvy4uhfk14,Nick_Dissertation_EX2_EP,1,38,2022-01-04T17:55:50+00:00,8.1425609588623,2,Mixed_Stim.csv,READVersionB.csv,"Read Mixed B","Read Mixed B",DOCUMENT,PAPER,Study2,F,109,65,STUDY,8,8,,Study/JOL,"Study Phase",8004,,,-1,-1,,,,1
10113024,wvy4uhfk14,Nick_Dissertation_EX2_EP,1,39,2022-01-04T17:55:58+00:00,8.1580700874329,2,Mixed_Stim.csv,READVersionB.csv,"Read Mixed B","Read Mixed B",MEAT,OBTAIN,Study2,U,161,63,STUDY,8,8,,Study/JOL,"Study Phase",8001,,,-1,-1,,,,1
10113024,wvy4uhfk14,Nick_Dissertation_EX2_EP,1,40,2022-01-04T17:56:06+00:00,8.2496910095215,2,Mixed_Stim.csv,READVersionB.csv,"Read Mixed B","Read Mixed B",LEASE,TOIL,Study2,U,170,87,STUDY,8,8,,Study/JOL,"Study Phase",8002,,,-1,-1,,,,1
10113024,wvy4uhfk14,Nick_Dissertation_EX2_EP,1,41,2022-01-04T17:56:14+00:00,8.3948209285736,2,Mixed_Stim.csv,READVersionB.csv,"Read Mixed B","Read Mixed B",REVOLUTION,WAR,Study1,F,20,23,STUDY,8,8,,Study/JOL,"Study Phase",8002,,,-1,-1,,,,1
10113024,wvy4uhfk14,Nick_Dissertation_EX2_EP,1,42,2022-01-04T17:56:23+00:00,8.145565032959,2,Mixed_Stim.csv,READVersionB.csv,"Read Mixed B","Read Mixed B",DINE,EAT,Study2,F,111,76,STUDY,8,8,,Study/JOL,"Study Phase",8002,,,-1,-1,,,,1
10113024,wvy4uhfk14,Nick_Dissertation_EX2_EP,1,43,2022-01-04T17:56:31+00:00,8.1423509120941,2,Mixed_Stim.csv,READVersionB.csv,"Read Mixed B","Read Mixed B",CHERRY,RED,Study2,F,104,74,STUDY,8,8,,Study/JOL,"Study Phase",8002,,,-1,-1,,,,1
10113024,wvy4uhfk14,Nick_Dissertation_EX2_EP,1,44,2022-01-04T17:56:39+00:00,8.1404590606689,2,Mixed_Stim.csv,READVersionB.csv,"Read Mixed B","Read Mixed B",SCALP,HEAD,Study2,F,105,60,STUDY,8,8,,Study/JOL,"Study Phase",8002,,,-1,-1,,,,1
10113024,wvy4uhfk14,Nick_Dissertation_EX2_EP,1,45,2022-01-04T17:56:47+00:00,8.1504311561584,2,Mixed_Stim.csv,READVersionB.csv,"Read Mixed B","Read Mixed B",SHEARS,SCISSORS,Study2,F,112,92,STUDY,8,8,,Study/JOL,"Study Phase",8004,,,-1,-1,,,,1
10113024,wvy4uhfk14,Nick_Dissertation_EX2_EP,1,46,2022-01-04T17:56:55+00:00,8.143944978714,2,Mixed_Stim.csv,READVersionB.csv,"Read Mixed B","Read Mixed B",FEUD,FIGHT,Study2,F,113,88,STUDY,8,8,,Study/JOL,"Study Phase",8002,,,-1,-1,,,,1
10113024,wvy4uhfk14,Nick_Dissertation_EX2_EP,1,47,2022-01-04T17:57:03+00:00,8.1445198059082,2,Mixed_Stim.csv,READVersionB.csv,"Read Mixed B","Read Mixed B",OCTOBER,SPOOKY,BUFFER4,Buffer,180,100,STUDY,8,8,,Study/JOL,BUFFER2,8002,,,-1,-1,,,,1
10113024,wvy4uhfk14,Nick_Dissertation_EX2_EP,1,48,2022-01-04T17:57:11+00:00,8.1421010494232,2,Mixed_Stim.csv,READVersionB.csv,"Read Mixed B","Read Mixed B",SPRING,MARCH,BUFFER4,Buffer,179,98,STUDY,8,8,,Study/JOL,BUFFER2,8004,,,-1,-1,,,,1
10113024,wvy4uhfk14,Nick_Dissertation_EX2_EP,1,49,2022-01-04T17:57:20+00:00,8.1432530879974,2,Mixed_Stim.csv,READVersionB.csv,"Read Mixed B","Read Mixed B",MONTH,YEAR,BUFFER4,Buffer,177,99,STUDY,8,8,,Study/JOL,BUFFER2,8002,,,-1,-1,,,,1
10113024,wvy4uhfk14,Nick_Dissertation_EX2_EP,1,50,2022-01-04T17:57:28+00:00,8.1420900821686,2,Mixed_Stim.csv,READVersionB.csv,"Read Mixed B","Read Mixed B",DAYS,WEAKS,BUFFER4,Buffer,176,101,STUDY,8,8,,Study/JOL,BUFFER2,8001,,,-1,-1,,,,1
10113024,wvy4uhfk14,Nick_Dissertation_EX2_EP,1,51,2022-01-04T17:57:36+00:00,8.1465618610382,2,Mixed_Stim.csv,READVersionB.csv,"Read Mixed B","Read Mixed B",TOOL,SHED,BUFFER4,Buffer,178,97,STUDY,8,8,,Study/JOL,BUFFER2,8003,,,-1,-1,,,,1
10113024,wvy4uhfk14,Nick_Dissertation_EX2_EP,1,52,2022-01-04T17:57:38+00:00,1.9298000335693,2,Mixed_Stim.csv,READVersionB.csv,"Read Mixed B","Read Mixed B",,,,,,0,Instruct,User,-,"You have completed this section. Please press Enter.",Filler_Instruction,Instruct2,1533,,,-1,-1,,,,1
10113024,wvy4uhfk14,Nick_Dissertation_EX2_EP,1,53,2022-01-04T17:59:38+00:00,120.27981805801,2,Mixed_Stim.csv,READVersionB.csv,"Read Mixed B","Read Mixed B",,,,,,0,FreeRecall,120,120,"Please list the 50 US states in alphabetical order. The task will automatically advance to the next screen after two minutes.",,Filler1,120003,"Alabama, Arkansas, California, Colorado, Hawaii, Kansas, Louisiana, Michigan, Minnesota, Mississippi, Nevada, New Jersey, New York, North Carolina, South Carolina, Texas, Wyoming, ",0,6899,114980,0,0,,1
10113024,wvy4uhfk14,Nick_Dissertation_EX2_EP,1,54,2022-01-04T17:59:49+00:00,10.75004696846,2,Mixed_Stim.csv,READVersionB.csv,"Read Mixed B","Read Mixed B",,,,,,0,Instruct,-,10,"You will now be presented with the first word from each of the previously studied item pairs. Please type the missing word. If you do not know the word, you may guess or press Enter to skip forward to the next pair.",,Instruct3,10611,,,-1,-1,,,,1
10113024,wvy4uhfk14,Nick_Dissertation_EX2_EP,1,55,2022-01-04T17:59:52+00:00,2.8509709835052,2,Mixed_Stim.csv,READVersionB.csv,"Read Mixed B","Read Mixed B",KEYS,JOKE,Study2,U,165,64,Test,User,-,,Recall,Recall1,2716,,0,-1,-1,0,0,,1
10113024,wvy4uhfk14,Nick_Dissertation_EX2_EP,1,56,2022-01-04T17:59:56+00:00,4.1239750385284,2,Mixed_Stim.csv,READVersionB.csv,"Read Mixed B","Read Mixed B",INCENSE,SMELL,Study2,F,110,90,Test,User,-,,Recall,Recall1,3988,Smell,100,1487,3775,1,1,,1
10113024,wvy4uhfk14,Nick_Dissertation_EX2_EP,1,57,2022-01-04T18:00:00+00:00,4.6303629875183,2,Mixed_Stim.csv,READVersionB.csv,"Read Mixed B","Read Mixed B",LISTEN,FICTION,Study2,U,164,96,Test,User,-,,Recall,Recall1,4494,Hear,0,2124,2725,0,0,,1
10113024,wvy4uhfk14,Nick_Dissertation_EX2_EP,1,58,2022-01-04T18:00:07+00:00,6.7695338726044,2,Mixed_Stim.csv,READVersionB.csv,"Read Mixed B","Read Mixed B",DINE,EAT,Study2,F,111,76,Test,User,-,,Recall,Recall1,6632,Eat,100,3846,6361,1,1,,1
10113024,wvy4uhfk14,Nick_Dissertation_EX2_EP,1,59,2022-01-04T18:00:10+00:00,2.4918210506439,2,Mixed_Stim.csv,READVersionB.csv,"Read Mixed B","Read Mixed B",DOCUMENT,PAPER,Study2,F,109,65,Test,User,-,,Recall,Recall1,2376,Paper,100,1625,2180,1,1,,1
10113024,wvy4uhfk14,Nick_Dissertation_EX2_EP,1,60,2022-01-04T18:00:12+00:00,2.1001660823822,2,Mixed_Stim.csv,READVersionB.csv,"Read Mixed B","Read Mixed B",CAKE,CLOTHES,Study2,U,166,82,Test,User,-,,Recall,Recall1,1986,,0,-1,-1,0,0,,1
10113024,wvy4uhfk14,Nick_Dissertation_EX2_EP,1,61,2022-01-04T18:00:15+00:00,3.4351608753204,2,Mixed_Stim.csv,READVersionB.csv,"Read Mixed B","Read Mixed B",NAME,HATE,Study2,U,167,85,Test,User,-,,Recall,Recall1,3288,Hate,100,2651,3046,1,1,,1
10113024,wvy4uhfk14,Nick_Dissertation_EX2_EP,1,62,2022-01-04T18:00:18+00:00,3.1937701702118,2,Mixed_Stim.csv,READVersionB.csv,"Read Mixed B","Read Mixed B",SHEARS,SCISSORS,Study2,F,112,92,Test,User,-,,Recall,Recall1,3075,Scissors,100,1605,2835,1,1,,1
10113024,wvy4uhfk14,Nick_Dissertation_EX2_EP,1,63,2022-01-04T18:00:21+00:00,2.8144819736481,2,Mixed_Stim.csv,READVersionB.csv,"Read Mixed B","Read Mixed B",VEHICLE,CHARM,Study2,U,160,69,Test,User,-,,Recall,Recall1,2706,Charm,100,1928,2388,1,1,,1
10113024,wvy4uhfk14,Nick_Dissertation_EX2_EP,1,64,2022-01-04T18:00:23+00:00,1.2442138195038,2,Mixed_Stim.csv,READVersionB.csv,"Read Mixed B","Read Mixed B",MAIN,SCAR,Study2,U,175,57,Test,User,-,,Recall,Recall1,1143,,0,-1,-1,0,0,,1
10113024,wvy4uhfk14,Nick_Dissertation_EX2_EP,1,65,2022-01-04T18:00:24+00:00,1.785010099411,2,Mixed_Stim.csv,READVersionB.csv,"Read Mixed B","Read Mixed B",ADJOURN,END,Study2,F,101,78,Test,User,-,,Recall,Recall1,1675,End,100,1240,1462,1,1,,1
10113024,wvy4uhfk14,Nick_Dissertation_EX2_EP,1,66,2022-01-04T18:00:27+00:00,3.0889251232147,2,Mixed_Stim.csv,READVersionB.csv,"Read Mixed B","Read Mixed B",TEMPERATURE,Morning,Study2,U,173,72,Test,User,-,,Recall,Recall1,2982,Morning,100,1926,2740,1,1,,1
10113024,wvy4uhfk14,Nick_Dissertation_EX2_EP,1,67,2022-01-04T18:00:29+00:00,1.8987278938293,2,Mixed_Stim.csv,READVersionB.csv,"Read Mixed B","Read Mixed B",LITTER,TRASH,Study2,F,103,61,Test,User,-,,Recall,Recall1,1793,Trash,100,1046,1564,1,1,,1
10113024,wvy4uhfk14,Nick_Dissertation_EX2_EP,1,68,2022-01-04T18:00:30+00:00,1.0876069068909,2,Mixed_Stim.csv,READVersionB.csv,"Read Mixed B","Read Mixed B",REVOLUTION,WAR,Study1,F,20,23,Test,User,-,,Recall,Recall1,990,,0,-1,-1,0,0,,1
10113024,wvy4uhfk14,Nick_Dissertation_EX2_EP,1,69,2022-01-04T18:00:32+00:00,1.7482490539551,2,Mixed_Stim.csv,READVersionB.csv,"Read Mixed B","Read Mixed B",CHOP,CUT,Study2,F,107,84,Test,User,-,,Recall,Recall1,1634,Cut,100,1179,1427,1,1,,1
10113024,wvy4uhfk14,Nick_Dissertation_EX2_EP,1,70,2022-01-04T18:00:34+00:00,1.3905699253082,2,Mixed_Stim.csv,READVersionB.csv,"Read Mixed B","Read Mixed B",MIRROR,CHILDREN,Study2,U,174,89,Test,User,-,,Recall,Recall1,1287,,0,-1,-1,0,0,,1
10113024,wvy4uhfk14,Nick_Dissertation_EX2_EP,1,71,2022-01-04T18:00:34+00:00,0.81978511810303,2,Mixed_Stim.csv,READVersionB.csv,"Read Mixed B","Read Mixed B",FEUD,FIGHT,Study2,F,113,88,Test,User,-,,Recall,Recall1,696,,0,-1,-1,0,0,,1
10113024,wvy4uhfk14,Nick_Dissertation_EX2_EP,1,72,2022-01-04T18:00:36+00:00,1.7388598918915,2,Mixed_Stim.csv,READVersionB.csv,"Read Mixed B","Read Mixed B",SHOELACE,TIE,Study2,F,99,94,Test,User,-,,Recall,Recall1,1606,Tie,100,979,1196,1,1,,1
10113024,wvy4uhfk14,Nick_Dissertation_EX2_EP,1,73,2022-01-04T18:00:39+00:00,3.318195104599,2,Mixed_Stim.csv,READVersionB.csv,"Read Mixed B","Read Mixed B",Shell,SHAKE,Study2,U,163,68,Test,User,-,,Recall,Recall1,3067,Shack,80,1093,2291,0,1,,1
10113024,wvy4uhfk14,Nick_Dissertation_EX2_EP,1,74,2022-01-04T18:00:45+00:00,5.2614059448242,2,Mixed_Stim.csv,READVersionB.csv,"Read Mixed B","Read Mixed B",CLUE,GAME,Study2,F,97,73,Test,User,-,,Recall,Recall1,5135,Game,100,1809,4979,1,1,,1
10113024,wvy4uhfk14,Nick_Dissertation_EX2_EP,1,75,2022-01-04T18:00:48+00:00,3.2255880832672,2,Mixed_Stim.csv,READVersionB.csv,"Read Mixed B","Read Mixed B",STRETCH,CLOTH,Study2,U,157,77,Test,User,-,,Recall,Recall1,3119,Cloth,100,2369,2845,1,1,,1
10113024,wvy4uhfk14,Nick_Dissertation_EX2_EP,1,76,2022-01-04T18:00:49+00:00,1.1618368625641,2,Mixed_Stim.csv,READVersionB.csv,"Read Mixed B","Read Mixed B",CHERRY,RED,Study2,F,104,74,Test,User,-,,Recall,Recall1,1062,,0,-1,-1,0,0,,1
10113024,wvy4uhfk14,Nick_Dissertation_EX2_EP,1,77,2022-01-04T18:00:51+00:00,2.416228055954,2,Mixed_Stim.csv,READVersionB.csv,"Read Mixed B","Read Mixed B",EXTENSION,LONG,Study2,F,96,59,Test,User,-,,Recall,Recall1,2303,Long,100,1674,2098,1,1,,1
10113024,wvy4uhfk14,Nick_Dissertation_EX2_EP,1,78,2022-01-04T18:00:54+00:00,2.122043132782,2,Mixed_Stim.csv,READVersionB.csv,"Read Mixed B","Read Mixed B",AFFECTION,LOVE,Study2,F,115,91,Test,User,-,,Recall,Recall1,2012,Love,100,1416,1840,1,1,,1
10113024,wvy4uhfk14,Nick_Dissertation_EX2_EP,1,79,2022-01-04T18:00:55+00:00,1.8682489395142,2,Mixed_Stim.csv,READVersionB.csv,"Read Mixed B","Read Mixed B",EXTENSION,LONG,Study2,F,96,59,Test,User,-,,Recall,Recall1,1761,Long,100,1051,1534,1,1,,1
10113024,wvy4uhfk14,Nick_Dissertation_EX2_EP,1,80,2022-01-04T18:00:57+00:00,1.1948289871216,2,Mixed_Stim.csv,READVersionB.csv,"Read Mixed B","Read Mixed B",LEASE,TOIL,Study2,U,170,87,Test,User,-,,Recall,Recall1,1097,,0,-1,-1,0,0,,1
10113024,wvy4uhfk14,Nick_Dissertation_EX2_EP,1,81,2022-01-04T18:00:59+00:00,2.6059510707855,2,Mixed_Stim.csv,READVersionB.csv,"Read Mixed B","Read Mixed B",DRIVER,CAR,Study2,F,106,86,Test,User,-,,Recall,Recall1,2495,,0,-1,-1,0,0,,1
10113024,wvy4uhfk14,Nick_Dissertation_EX2_EP,1,82,2022-01-04T18:01:00+00:00,0.83256983757019,2,Mixed_Stim.csv,READVersionB.csv,"Read Mixed B","Read Mixed B",MOAT,CLEAR,Study2,U,169,79,Test,User,-,,Recall,Recall1,720,,0,-1,-1,0,0,,1
10113024,wvy4uhfk14,Nick_Dissertation_EX2_EP,1,83,2022-01-04T18:01:17+00:00,16.543416023254,2,Mixed_Stim.csv,READVersionB.csv,"Read Mixed B","Read Mixed B",BOTH,OUNCE,Study2,U,172,81,Test,User,-,,Recall,Recall1,16395,,0,-1,-1,0,0,,1
10113024,wvy4uhfk14,Nick_Dissertation_EX2_EP,1,84,2022-01-04T18:01:18+00:00,0.96276116371155,2,Mixed_Stim.csv,READVersionB.csv,"Read Mixed B","Read Mixed B",SCALP,HEAD,Study2,F,105,60,Test,User,-,,Recall,Recall1,831,,0,-1,-1,0,0,,1
10113024,wvy4uhfk14,Nick_Dissertation_EX2_EP,1,85,2022-01-04T18:01:18+00:00,0.8892548084259,2,Mixed_Stim.csv,READVersionB.csv,"Read Mixed B","Read Mixed B",MAZE,ELECTION,Study2,U,159,80,Test,User,-,,Recall,Recall1,775,,0,-1,-1,0,0,,1
10113024,wvy4uhfk14,Nick_Dissertation_EX2_EP,1,86,2022-01-04T18:01:19+00:00,0.88293600082397,2,Mixed_Stim.csv,READVersionB.csv,"Read Mixed B","Read Mixed B",JUSTICE,MAROON,Study2,U,156,95,Test,User,-,,Recall,Recall1,777,,0,-1,-1,0,0,,1
10113024,wvy4uhfk14,Nick_Dissertation_EX2_EP,1,87,2022-01-04T18:01:22+00:00,2.7783260345459,2,Mixed_Stim.csv,READVersionB.csv,"Read Mixed B","Read Mixed B",CHILL,COLD,Study2,F,114,93,Test,User,-,,Recall,Recall1,2661,Cold,100,1973,2386,1,1,,1
10113024,wvy4uhfk14,Nick_Dissertation_EX2_EP,1,88,2022-01-04T18:01:26+00:00,3.6886210441589,2,Mixed_Stim.csv,READVersionB.csv,"Read Mixed B","Read Mixed B",MEAT,OBTAIN,Study2,U,161,63,Test,User,-,,Recall,Recall1,3564,Cut,22.222222222222,3110,3428,0,0,,1
10113024,wvy4uhfk14,Nick_Dissertation_EX2_EP,1,89,2022-01-04T18:01:31+00:00,5.4653599262238,2,Mixed_Stim.csv,READVersionB.csv,"Read Mixed B","Read Mixed B",FUZZY,BANG,Study2,U,168,70,Test,User,-,,Recall,Recall1,5324,Bang,100,1960,4969,1,1,,1
10113024,wvy4uhfk14,Nick_Dissertation_EX2_EP,1,90,2022-01-04T18:01:34+00:00,2.2985281944275,2,Mixed_Stim.csv,READVersionB.csv,"Read Mixed B","Read Mixed B",MULE,DONKEY,Study2,F,108,66,Test,User,-,,Recall,Recall1,2185,Donkey,100,1220,1873,1,1,,1
10113024,wvy4uhfk14,Nick_Dissertation_EX2_EP,1,91,2022-01-04T18:01:43+00:00,9.8853049278259,2,Mixed_Stim.csv,READVersionB.csv,"Read Mixed B","Read Mixed B",FURRY,DOG,Study2,F,102,62,Test,User,-,,Recall,Recall1,9754,Clothes,20,7566,9634,0,0,,1
10113024,wvy4uhfk14,Nick_Dissertation_EX2_EP,1,92,2022-01-04T18:01:48+00:00,4.991574048996,2,Mixed_Stim.csv,READVersionB.csv,"Read Mixed B","Read Mixed B",CACTUS,PLANT,Study2,F,98,75,Test,User,-,,Recall,Recall1,4858,Sharp,20,3495,4581,0,0,,1
10113024,wvy4uhfk14,Nick_Dissertation_EX2_EP,1,93,2022-01-04T18:01:52+00:00,3.2541608810425,2,Mixed_Stim.csv,READVersionB.csv,"Read Mixed B","Read Mixed B",DETECTIVE,MYSTERY,Study2,F,100,67,Test,User,-,,Recall,Recall1,3135,Mystery,100,1431,2403,1,1,,1
10113024,wvy4uhfk14,Nick_Dissertation_EX2_EP,1,94,2022-01-04T18:01:54+00:00,2.1987891197205,2,Mixed_Stim.csv,READVersionB.csv,"Read Mixed B","Read Mixed B",GIVE,STEAK,Study2,U,158,71,Test,User,-,,Recall,Recall1,2096,,0,-1,-1,0,0,,1
10113024,wvy4uhfk14,Nick_Dissertation_EX2_EP,1,95,2022-01-04T18:02:04+00:00,10.497534990311,2,Mixed_Stim.csv,READVersionB.csv,"Read Mixed B","Read Mixed B",,,,,,0,Instruct,-,10,"You will now be presented with a new set of word pairs. Please study each pair. Remember that your memory will be tested! Each pair will be displayed on the computer screen and will automatically advance to the next pair. Press ENTER when you are ready to begin.",Initial_Instruct,Instruct4,10367,,,-1,-1,,,,1
10113024,wvy4uhfk14,Nick_Dissertation_EX2_EP,1,96,2022-01-04T18:02:13+00:00,8.1541509628296,2,Mixed_Stim.csv,READVersionB.csv,"Read Mixed B","Read Mixed B",TREES,GREEN,BUFFER1,Buffer,1,6,STUDY,8,8,,Study/JOL,BUFFER3,8009,,,-1,-1,,,,1
10113024,wvy4uhfk14,Nick_Dissertation_EX2_EP,1,97,2022-01-04T18:02:21+00:00,8.1478939056396,2,Mixed_Stim.csv,READVersionB.csv,"Read Mixed B","Read Mixed B",PEANUT,BUTTER,BUFFER1,Buffer,3,5,STUDY,8,8,,Study/JOL,BUFFER3,8002,,,-1,-1,,,,1
10113024,wvy4uhfk14,Nick_Dissertation_EX2_EP,1,98,2022-01-04T18:02:29+00:00,8.150887966156,2,Mixed_Stim.csv,READVersionB.csv,"Read Mixed B","Read Mixed B",SPACE,JAM,BUFFER1,Buffer,5,3,STUDY,8,8,,Study/JOL,BUFFER3,8003,,,-1,-1,,,,1
10113024,wvy4uhfk14,Nick_Dissertation_EX2_EP,1,99,2022-01-04T18:02:37+00:00,8.1490001678467,2,Mixed_Stim.csv,READVersionB.csv,"Read Mixed B","Read Mixed B",BASEBALL,CATCHER,BUFFER1,Buffer,2,2,STUDY,8,8,,Study/JOL,BUFFER3,8002,,,-1,-1,,,,1
10113024,wvy4uhfk14,Nick_Dissertation_EX2_EP,1,100,2022-01-04T18:02:45+00:00,8.1529138088226,2,Mixed_Stim.csv,READVersionB.csv,"Read Mixed B","Read Mixed B",SCARE,HIDE,BUFFER1,Buffer,4,4,STUDY,8,8,,Study/JOL,BUFFER3,8008,,,-1,-1,,,,1
10113024,wvy4uhfk14,Nick_Dissertation_EX2_EP,1,101,2022-01-04T18:02:53+00:00,8.1440441608429,2,Mixed_Stim.csv,READVersionB.csv,"Read Mixed B","Read Mixed B",HERD,COW,Study1,F,22,34,STUDY,8,8,,Study/JOL,"Study Phase2",8003,,,-1,-1,,,,1
10113024,wvy4uhfk14,Nick_Dissertation_EX2_EP,1,102,2022-01-04T18:03:01+00:00,8.1461918354034,2,Mixed_Stim.csv,READVersionB.csv,"Read Mixed B","Read Mixed B",BITTER,COLD,Study1,F,12,13,STUDY,8,8,,Study/JOL,"Study Phase2",8002,,,-1,-1,,,,1
10113024,wvy4uhfk14,Nick_Dissertation_EX2_EP,1,103,2022-01-04T18:03:10+00:00,8.1551921367645,2,Mixed_Stim.csv,READVersionB.csv,"Read Mixed B","Read Mixed B",FIX,HAND,Study1,U,75,28,STUDY,8,8,,Study/JOL,"Study Phase2",8002,,,-1,-1,,,,1
10113024,wvy4uhfk14,Nick_Dissertation_EX2_EP,1,104,2022-01-04T18:03:18+00:00,8.1534330844879,2,Mixed_Stim.csv,READVersionB.csv,"Read Mixed B","Read Mixed B",ARTERY,BRONZE,Study1,U,74,39,STUDY,8,8,,Study/JOL,"Study Phase2",8002,,,-1,-1,,,,1
10113024,wvy4uhfk14,Nick_Dissertation_EX2_EP,1,105,2022-01-04T18:03:26+00:00,8.1491727828979,2,Mixed_Stim.csv,READVersionB.csv,"Read Mixed B","Read Mixed B",ORCHID,FLOWER,Study1,F,24,11,STUDY,8,8,,Study/JOL,"Study Phase2",8002,,,-1,-1,,,,1
10113024,wvy4uhfk14,Nick_Dissertation_EX2_EP,1,106,2022-01-04T18:03:34+00:00,8.1480062007904,2,Mixed_Stim.csv,READVersionB.csv,"Read Mixed B","Read Mixed B",DEBATE,SIGHT,Study1,U,73,42,STUDY,8,8,,Study/JOL,"Study Phase2",8002,,,-1,-1,,,,1
10113024,wvy4uhfk14,Nick_Dissertation_EX2_EP,1,107,2022-01-04T18:03:42+00:00,8.1614918708801,2,Mixed_Stim.csv,READVersionB.csv,"Read Mixed B","Read Mixed B",CHISEL,HAMMER,Study1,F,9,46,STUDY,8,8,,Study/JOL,"Study Phase2",8002,,,-1,-1,,,,1
10113024,wvy4uhfk14,Nick_Dissertation_EX2_EP,1,108,2022-01-04T18:03:50+00:00,8.1503949165344,2,Mixed_Stim.csv,READVersionB.csv,"Read Mixed B","Read Mixed B",DIGESTION,STOMACH,Study1,F,7,29,STUDY,8,8,,Study/JOL,"Study Phase2",8002,,,-1,-1,,,,1
10113024,wvy4uhfk14,Nick_Dissertation_EX2_EP,1,109,2022-01-04T18:03:59+00:00,8.14462018013,2,Mixed_Stim.csv,READVersionB.csv,"Read Mixed B","Read Mixed B",DIETARY,SACKING,Study1,U,67,27,STUDY,8,8,,Study/JOL,"Study Phase2",8002,,,-1,-1,,,,1
10113024,wvy4uhfk14,Nick_Dissertation_EX2_EP,1,110,2022-01-04T18:04:07+00:00,8.1478049755096,2,Mixed_Stim.csv,READVersionB.csv,"Read Mixed B","Read Mixed B",ART,LION,Study1,U,79,7,STUDY,8,8,,Study/JOL,"Study Phase2",8003,,,-1,-1,,,,1
10113024,wvy4uhfk14,Nick_Dissertation_EX2_EP,1,111,2022-01-04T18:04:15+00:00,8.150682926178,2,Mixed_Stim.csv,READVersionB.csv,"Read Mixed B","Read Mixed B",KING,VASE,Study1,U,85,18,STUDY,8,8,,Study/JOL,"Study Phase2",8002,,,-1,-1,,,,1
10113024,wvy4uhfk14,Nick_Dissertation_EX2_EP,1,112,2022-01-04T18:04:23+00:00,8.1552510261536,2,Mixed_Stim.csv,READVersionB.csv,"Read Mixed B","Read Mixed B",CASH,WOULD,Study1,U,83,10,STUDY,8,8,,Study/JOL,"Study Phase2",8010,,,-1,-1,,,,1
10113024,wvy4uhfk14,Nick_Dissertation_EX2_EP,1,113,2022-01-04T18:04:31+00:00,8.1426930427551,2,Mixed_Stim.csv,READVersionB.csv,"Read Mixed B","Read Mixed B",TUNA,FISH,Study1,F,25,25,STUDY,8,8,,Study/JOL,"Study Phase2",8002,,,-1,-1,,,,1
10113024,wvy4uhfk14,Nick_Dissertation_EX2_EP,1,114,2022-01-04T18:04:39+00:00,8.1485378742218,2,Mixed_Stim.csv,READVersionB.csv,"Read Mixed B","Read Mixed B",SWAN,BIRD,Study1,F,14,37,STUDY,8,8,,Study/JOL,"Study Phase2",8002,,,-1,-1,,,,1
10113024,wvy4uhfk14,Nick_Dissertation_EX2_EP,1,115,2022-01-04T18:04:47+00:00,8.1495060920715,2,Mixed_Stim.csv,READVersionB.csv,"Read Mixed B","Read Mixed B",DISCUSSION,TALK,Study1,F,21,30,STUDY,8,8,,Study/JOL,"Study Phase2",8002,,,-1,-1,,,,1
10113024,wvy4uhfk14,Nick_Dissertation_EX2_EP,1,116,2022-01-04T18:04:56+00:00,8.1541628837585,2,Mixed_Stim.csv,READVersionB.csv,"Read Mixed B","Read Mixed B",PAW,DOG,Study1,F,15,19,STUDY,8,8,,Study/JOL,"Study Phase2",8004,,,-1,-1,,,,1
10113024,wvy4uhfk14,Nick_Dissertation_EX2_EP,1,117,2022-01-04T18:05:04+00:00,8.1493601799011,2,Mixed_Stim.csv,READVersionB.csv,"Read Mixed B","Read Mixed B",HYGIENE,CLEAN,Study1,F,17,26,STUDY,8,8,,Study/JOL,"Study Phase2",8002,,,-1,-1,,,,1
10113024,wvy4uhfk14,Nick_Dissertation_EX2_EP,1,118,2022-01-04T18:05:12+00:00,8.1514339447021,2,Mixed_Stim.csv,READVersionB.csv,"Read Mixed B","Read Mixed B",ALLOW,TUCK,Study1,U,78,43,STUDY,8,8,,Study/JOL,"Study Phase2",8002,,,-1,-1,,,,1
10113024,wvy4uhfk14,Nick_Dissertation_EX2_EP,1,119,2022-01-04T18:05:20+00:00,8.1561710834503,2,Mixed_Stim.csv,READVersionB.csv,"Read Mixed B","Read Mixed B",SUGAR,RIDDLE,Study1,U,81,41,STUDY,8,8,,Study/JOL,"Study Phase2",8002,,,-1,-1,,,,1
10113024,wvy4uhfk14,Nick_Dissertation_EX2_EP,1,120,2022-01-04T18:05:28+00:00,8.1506509780884,2,Mixed_Stim.csv,READVersionB.csv,"Read Mixed B","Read Mixed B",ROOT,PLANT,Study1,F,13,9,STUDY,8,8,,Study/JOL,"Study Phase2",8001,,,-1,-1,,,,1
10113024,wvy4uhfk14,Nick_Dissertation_EX2_EP,1,121,2022-01-04T18:05:37+00:00,8.6319048404694,2,Mixed_Stim.csv,READVersionB.csv,"Read Mixed B","Read Mixed B",EDITOR,NEWS,Study1,F,10,20,STUDY,8,8,,Study/JOL,"Study Phase2",8002,,,-1,-1,,,,1
10113024,wvy4uhfk14,Nick_Dissertation_EX2_EP,1,122,2022-01-04T18:05:45+00:00,8.1853861808777,2,Mixed_Stim.csv,READVersionB.csv,"Read Mixed B","Read Mixed B",HAPPY,CAR,Study1,U,77,16,STUDY,8,8,,Study/JOL,"Study Phase2",8002,,,-1,-1,,,,1
10113024,wvy4uhfk14,Nick_Dissertation_EX2_EP,1,123,2022-01-04T18:05:53+00:00,8.1568698883057,2,Mixed_Stim.csv,READVersionB.csv,"Read Mixed B","Read Mixed B",WAGE,MONEY,Study1,F,8,24,STUDY,8,8,,Study/JOL,"Study Phase2",8002,,,-1,-1,,,,1
10113024,wvy4uhfk14,Nick_Dissertation_EX2_EP,1,124,2022-01-04T18:06:01+00:00,8.153813123703,2,Mixed_Stim.csv,READVersionB.csv,"Read Mixed B","Read Mixed B",VALLEY,ADD,Study1,U,82,36,STUDY,8,8,,Study/JOL,"Study Phase2",8002,,,-1,-1,,,,1
10113024,wvy4uhfk14,Nick_Dissertation_EX2_EP,1,125,2022-01-04T18:06:09+00:00,8.1507887840271,2,Mixed_Stim.csv,READVersionB.csv,"Read Mixed B","Read Mixed B",SOON,BELT,Study1,U,70,35,STUDY,8,8,,Study/JOL,"Study Phase2",8002,,,-1,-1,,,,1
10113024,wvy4uhfk14,Nick_Dissertation_EX2_EP,1,126,2022-01-04T18:06:18+00:00,8.1452071666718,2,Mixed_Stim.csv,READVersionB.csv,"Read Mixed B","Read Mixed B",HIDE,SICK,Study1,U,84,32,STUDY,8,8,,Study/JOL,"Study Phase2",8002,,,-1,-1,,,,1
10113024,wvy4uhfk14,Nick_Dissertation_EX2_EP,1,127,2022-01-04T18:06:26+00:00,8.161682844162,2,Mixed_Stim.csv,READVersionB.csv,"Read Mixed B","Read Mixed B",CREDIT,CARD,Study1,F,23,22,STUDY,8,8,,Study/JOL,"Study Phase2",8002,,,-1,-1,,,,1
10113024,wvy4uhfk14,Nick_Dissertation_EX2_EP,1,128,2022-01-04T18:06:34+00:00,8.1475901603699,2,Mixed_Stim.csv,READVersionB.csv,"Read Mixed B","Read Mixed B",DEATH,BUSINESS,Study1,U,72,38,STUDY,8,8,,Study/JOL,"Study Phase2",8002,,,-1,-1,,,,1
10113024,wvy4uhfk14,Nick_Dissertation_EX2_EP,1,129,2022-01-04T18:06:42+00:00,8.1500329971313,2,Mixed_Stim.csv,READVersionB.csv,"Read Mixed B","Read Mixed B",PUSHER,CLUTTER,Study1,U,66,15,STUDY,8,8,,Study/JOL,"Study Phase2",8003,,,-1,-1,,,,1
10113024,wvy4uhfk14,Nick_Dissertation_EX2_EP,1,130,2022-01-04T18:06:50+00:00,8.146087884903,2,Mixed_Stim.csv,READVersionB.csv,"Read Mixed B","Read Mixed B",STRONG,ACCIDENT,Study1,U,80,14,STUDY,8,8,,Study/JOL,"Study Phase2",8009,,,-1,-1,,,,1
10113024,wvy4uhfk14,Nick_Dissertation_EX2_EP,1,131,2022-01-04T18:06:58+00:00,8.1432361602783,2,Mixed_Stim.csv,READVersionB.csv,"Read Mixed B","Read Mixed B",DISCOVER,FLOOR,Study1,U,71,31,STUDY,8,8,,Study/JOL,"Study Phase2",8003,,,-1,-1,,,,1
10113024,wvy4uhfk14,Nick_Dissertation_EX2_EP,1,132,2022-01-04T18:07:06+00:00,8.1378049850464,2,Mixed_Stim.csv,READVersionB.csv,"Read Mixed B","Read Mixed B",GEOLOGY,ROCK,Study1,F,19,21,STUDY,8,8,,Study/JOL,"Study Phase2",8001,,,-1,-1,,,,1
10113024,wvy4uhfk14,Nick_Dissertation_EX2_EP,1,133,2022-01-04T18:07:15+00:00,8.1440408229828,2,Mixed_Stim.csv,READVersionB.csv,"Read Mixed B","Read Mixed B",BRIDGE,WATER,Study1,F,18,8,STUDY,8,8,,Study/JOL,"Study Phase2",8001,,,-1,-1,,,,1
10113024,wvy4uhfk14,Nick_Dissertation_EX2_EP,1,134,2022-01-04T18:07:23+00:00,8.1465661525726,2,Mixed_Stim.csv,READVersionB.csv,"Read Mixed B","Read Mixed B",LIFT,WOMAN,Study1,U,69,33,STUDY,8,8,,Study/JOL,"Study Phase2",8002,,,-1,-1,,,,1
10113024,wvy4uhfk14,Nick_Dissertation_EX2_EP,1,135,2022-01-04T18:07:32+00:00,9.0988130569458,2,Mixed_Stim.csv,READVersionB.csv,"Read Mixed B","Read Mixed B",DELINQUENT,BAD,Study1,F,6,45,STUDY,8,8,,Study/JOL,"Study Phase2",8934,,,-1,-1,,,,0.906
10113024,wvy4uhfk14,Nick_Dissertation_EX2_EP,1,136,2022-01-04T18:07:40+00:00,8.2085239887238,2,Mixed_Stim.csv,READVersionB.csv,"Read Mixed B","Read Mixed B",PARK,HUNGRY,Study1,U,68,12,STUDY,8,8,,Study/JOL,"Study Phase2",8005,,,-1,-1,,,,0.783
10113024,wvy4uhfk14,Nick_Dissertation_EX2_EP,1,137,2022-01-04T18:07:48+00:00,8.1624457836151,2,Mixed_Stim.csv,READVersionB.csv,"Read Mixed B","Read Mixed B",MACHINE,POSITION,Study1,U,76,17,STUDY,8,8,,Study/JOL,"Study Phase2",8002,,,-1,-1,,,,1
10113024,wvy4uhfk14,Nick_Dissertation_EX2_EP,1,138,2022-01-04T18:07:56+00:00,8.1469781398773,2,Mixed_Stim.csv,READVersionB.csv,"Read Mixed B","Read Mixed B",HORNET,STING,Study1,F,11,40,STUDY,8,8,,Study/JOL,"Study Phase2",8002,,,-1,-1,,,,1
10113024,wvy4uhfk14,Nick_Dissertation_EX2_EP,1,139,2022-01-04T18:08:05+00:00,8.3882009983063,2,Mixed_Stim.csv,READVersionB.csv,"Read Mixed B","Read Mixed B",WAY,OUT,Study1,F,16,44,STUDY,8,8,,Study/JOL,"Study Phase2",8222,,,-1,-1,,,,0.385
10113024,wvy4uhfk14,Nick_Dissertation_EX2_EP,1,140,2022-01-04T18:08:14+00:00,9.0557639598846,2,Mixed_Stim.csv,READVersionB.csv,"Read Mixed B","Read Mixed B",REVOLUTION,WAR,Study1,F,20,23,STUDY,8,8,,Study/JOL,"Study Phase2",8852,,,-1,-1,,,,0.609
10113024,wvy4uhfk14,Nick_Dissertation_EX2_EP,1,141,2022-01-04T18:08:22+00:00,8.1916069984436,2,Mixed_Stim.csv,READVersionB.csv,"Read Mixed B","Read Mixed B",THING,STUFF,BUFFER2,Buffer,90,50,STUDY,8,8,,Study/JOL,BUFFER4,8009,,,-1,-1,,,,0.778
10113024,wvy4uhfk14,Nick_Dissertation_EX2_EP,1,142,2022-01-04T18:08:30+00:00,8.1550030708313,2,Mixed_Stim.csv,READVersionB.csv,"Read Mixed B","Read Mixed B",MALT,CHOCOLATE,BUFFER2,Buffer,88,47,STUDY,8,8,,Study/JOL,BUFFER4,8004,,,-1,-1,,,,1
10113024,wvy4uhfk14,Nick_Dissertation_EX2_EP,1,143,2022-01-04T18:08:38+00:00,8.1590909957886,2,Mixed_Stim.csv,READVersionB.csv,"Read Mixed B","Read Mixed B",GEESE,GOOSE,BUFFER2,Buffer,86,51,STUDY,8,8,,Study/JOL,BUFFER4,8002,,,-1,-1,,,,1
10113024,wvy4uhfk14,Nick_Dissertation_EX2_EP,1,144,2022-01-04T18:08:47+00:00,8.1490249633789,2,Mixed_Stim.csv,READVersionB.csv,"Read Mixed B","Read Mixed B",SHERRIF,POLICE,BUFFER2,Buffer,87,48,STUDY,8,8,,Study/JOL,BUFFER4,8002,,,-1,-1,,,,1
10113024,wvy4uhfk14,Nick_Dissertation_EX2_EP,1,145,2022-01-04T18:08:55+00:00,8.1550579071045,2,Mixed_Stim.csv,READVersionB.csv,"Read Mixed B","Read Mixed B",MOON,SPACE,BUFFER2,Buffer,89,49,STUDY,8,8,,Study/JOL,BUFFER4,8006,,,-1,-1,,,,0.833
10113024,wvy4uhfk14,Nick_Dissertation_EX2_EP,1,146,2022-01-04T18:08:57+00:00,2.0325679779053,2,Mixed_Stim.csv,READVersionB.csv,"Read Mixed B","Read Mixed B",,,,,,0,Instruct,User,-,"You have completed this section. Please press Enter.",Filler_Instruction,Instruct5,1902,,,-1,-1,,,,1
10113024,wvy4uhfk14,Nick_Dissertation_EX2_EP,1,147,2022-01-04T18:10:57+00:00,120.16014504433,2,Mixed_Stim.csv,READVersionB.csv,"Read Mixed B","Read Mixed B",,,,,,0,FreeRecall,120,120,"Please list the 50 US states in reverse alphabetical order (z - a). The task will automatically advance to the next screen after two minutes.",,Filler2,120004,"Alabama, Arkansas, California, Colorado, Florida, Indiana, Kansas, Louisiana, Michigan, Minnesota, Mississippi, Nevada, New Jersey, New York, North Carolina, South Carolina, Texas, Wisconsin, Wyoming",0,2684,116938,0,0,,1
10113024,wvy4uhfk14,Nick_Dissertation_EX2_EP,1,148,2022-01-04T18:11:07+00:00,10.204056024551,2,Mixed_Stim.csv,READVersionB.csv,"Read Mixed B","Read Mixed B",,,,,,0,Instruct,-,10,"You will now be presented with the first word from each of the previously studied item pairs. Please type the missing word. If you do not know the word, you may guess or press Enter to skip forward to the next pair.",,Instruct6,10064,,,-1,-1,,,,1
10113024,wvy4uhfk14,Nick_Dissertation_EX2_EP,1,149,2022-01-04T18:11:10+00:00,2.6988649368286,2,Mixed_Stim.csv,READVersionB.csv,"Read Mixed B","Read Mixed B",HORNET,STING,Study1,F,11,40,Test,User,-,,Recall,Recall2,2572,Sting,100,1787,2369,1,1,,1
10113024,wvy4uhfk14,Nick_Dissertation_EX2_EP,1,150,2022-01-04T18:11:11+00:00,1.1661369800568,2,Mixed_Stim.csv,READVersionB.csv,"Read Mixed B","Read Mixed B",VALLEY,ADD,Study1,U,82,36,Test,User,-,,Recall,Recall2,1058,,0,-1,-1,0,0,,1
10113024,wvy4uhfk14,Nick_Dissertation_EX2_EP,1,151,2022-01-04T18:11:14+00:00,3.2620210647583,2,Mixed_Stim.csv,READVersionB.csv,"Read Mixed B","Read Mixed B",HIDE,SICK,Study1,U,84,32,Test,User,-,,Recall,Recall2,3141,Seek,50,1575,2894,0,0,,1
10113024,wvy4uhfk14,Nick_Dissertation_EX2_EP,1,152,2022-01-04T18:11:15+00:00,0.90283799171448,2,Mixed_Stim.csv,READVersionB.csv,"Read Mixed B","Read Mixed B",ROOT,PLANT,Study1,F,13,9,Test,User,-,,Recall,Recall2,769,,0,-1,-1,0,0,,1
10113024,wvy4uhfk14,Nick_Dissertation_EX2_EP,1,153,2022-01-04T18:11:16+00:00,0.84166717529297,2,Mixed_Stim.csv,READVersionB.csv,"Read Mixed B","Read Mixed B",ALLOW,TUCK,Study1,U,78,43,Test,User,-,,Recall,Recall2,728,,0,-1,-1,0,0,,1
10113024,wvy4uhfk14,Nick_Dissertation_EX2_EP,1,154,2022-01-04T18:11:17+00:00,0.88587880134583,2,Mixed_Stim.csv,READVersionB.csv,"Read Mixed B","Read Mixed B",PARK,HUNGRY,Study1,U,68,12,Test,User,-,,Recall,Recall2,777,,0,-1,-1,0,0,,1
10113024,wvy4uhfk14,Nick_Dissertation_EX2_EP,1,155,2022-01-04T18:11:18+00:00,1.0310940742493,2,Mixed_Stim.csv,READVersionB.csv,"Read Mixed B","Read Mixed B",FIX,HAND,Study1,U,75,28,Test,User,-,,Recall,Recall2,908,,0,-1,-1,0,0,,1
10113024,wvy4uhfk14,Nick_Dissertation_EX2_EP,1,156,2022-01-04T18:11:21+00:00,3.5991389751434,2,Mixed_Stim.csv,READVersionB.csv,"Read Mixed B","Read Mixed B",DEBATE,SIGHT,Study1,U,73,42,Test,User,-,,Recall,Recall2,3482,Fight,80,2917,3341,0,1,,1
10113024,wvy4uhfk14,Nick_Dissertation_EX2_EP,1,157,2022-01-04T18:11:24+00:00,2.6293320655823,2,Mixed_Stim.csv,READVersionB.csv,"Read Mixed B","Read Mixed B",MACHINE,POSITION,Study1,U,76,17,Test,User,-,,Recall,Recall2,2519,Gun,18.181818181818,1626,1826,0,0,,1
10113024,wvy4uhfk14,Nick_Dissertation_EX2_EP,1,158,2022-01-04T18:11:25+00:00,0.99207401275635,2,Mixed_Stim.csv,READVersionB.csv,"Read Mixed B","Read Mixed B",SUGAR,RIDDLE,Study1,U,81,41,Test,User,-,,Recall,Recall2,890,,0,-1,-1,0,0,,1
10113024,wvy4uhfk14,Nick_Dissertation_EX2_EP,1,159,2022-01-04T18:11:26+00:00,0.9014298915863,2,Mixed_Stim.csv,READVersionB.csv,"Read Mixed B","Read Mixed B",DIETARY,SACKING,Study1,U,67,27,Test,User,-,,Recall,Recall2,795,,0,-1,-1,0,0,,1
10113024,wvy4uhfk14,Nick_Dissertation_EX2_EP,1,160,2022-01-04T18:11:28+00:00,2.3385021686554,2,Mixed_Stim.csv,READVersionB.csv,"Read Mixed B","Read Mixed B",DISCUSSION,TALK,Study1,F,21,30,Test,User,-,,Recall,Recall2,2222,Talk,100,1363,1844,1,1,,1
10113024,wvy4uhfk14,Nick_Dissertation_EX2_EP,1,161,2022-01-04T18:11:31+00:00,2.6134939193726,2,Mixed_Stim.csv,READVersionB.csv,"Read Mixed B","Read Mixed B",REVOLUTION,WAR,Study1,F,20,23,Test,User,-,,Recall,Recall2,2503,War,100,1453,1846,1,1,,1
10113024,wvy4uhfk14,Nick_Dissertation_EX2_EP,1,162,2022-01-04T18:11:32+00:00,1.4025809764862,2,Mixed_Stim.csv,READVersionB.csv,"Read Mixed B","Read Mixed B",HAPPY,CAR,Study1,U,77,16,Test,User,-,,Recall,Recall2,1299,,0,-1,-1,0,0,,1
10113024,wvy4uhfk14,Nick_Dissertation_EX2_EP,1,163,2022-01-04T18:11:33+00:00,0.98227906227112,2,Mixed_Stim.csv,READVersionB.csv,"Read Mixed B","Read Mixed B",DEATH,BUSINESS,Study1,U,72,38,Test,User,-,,Recall,Recall2,877,,0,-1,-1,0,0,,1
10113024,wvy4uhfk14,Nick_Dissertation_EX2_EP,1,164,2022-01-04T18:11:35+00:00,1.989709854126,2,Mixed_Stim.csv,READVersionB.csv,"Read Mixed B","Read Mixed B",ORCHID,FLOWER,Study1,F,24,11,Test,User,-,,Recall,Recall2,1878,Flower,100,1136,1710,1,1,,1
10113024,wvy4uhfk14,Nick_Dissertation_EX2_EP,1,165,2022-01-04T18:11:39+00:00,3.5195660591125,2,Mixed_Stim.csv,READVersionB.csv,"Read Mixed B","Read Mixed B",CHISEL,HAMMER,Study1,F,9,46,Test,User,-,,Recall,Recall2,3402,Tool,0,2266,3113,0,0,,1
10113024,wvy4uhfk14,Nick_Dissertation_EX2_EP,1,166,2022-01-04T18:11:40+00:00,1.1829130649567,2,Mixed_Stim.csv,READVersionB.csv,"Read Mixed B","Read Mixed B",DIGESTION,STOMACH,Study1,F,7,29,Test,User,-,,Recall,Recall2,1081,,0,-1,-1,0,0,,1
10113024,wvy4uhfk14,Nick_Dissertation_EX2_EP,1,167,2022-01-04T18:11:42+00:00,1.5846719741821,2,Mixed_Stim.csv,READVersionB.csv,"Read Mixed B","Read Mixed B",DISCOVER,FLOOR,Study1,U,71,31,Test,User,-,,Recall,Recall2,1471,,0,-1,-1,0,0,,1
10113024,wvy4uhfk14,Nick_Dissertation_EX2_EP,1,168,2022-01-04T18:11:43+00:00,1.1984689235687,2,Mixed_Stim.csv,READVersionB.csv,"Read Mixed B","Read Mixed B",EDITOR,NEWS,Study1,F,10,20,Test,User,-,,Recall,Recall2,1085,,0,-1,-1,0,0,,1
10113024,wvy4uhfk14,Nick_Dissertation_EX2_EP,1,169,2022-01-04T18:11:45+00:00,1.9972040653229,2,Mixed_Stim.csv,READVersionB.csv,"Read Mixed B","Read Mixed B",CREDIT,CARD,Study1,F,23,22,Test,User,-,,Recall,Recall2,1883,Hour,25,1402,1661,0,0,,1
10113024,wvy4uhfk14,Nick_Dissertation_EX2_EP,1,170,2022-01-04T18:11:50+00:00,5.577348947525,2,Mixed_Stim.csv,READVersionB.csv,"Read Mixed B","Read Mixed B",PUSHER,CLUTTER,Study1,U,66,15,Test,User,-,,Recall,Recall2,5448,Fight,16.666666666667,2959,5301,0,0,,1
10113024,wvy4uhfk14,Nick_Dissertation_EX2_EP,1,171,2022-01-04T18:11:52+00:00,1.7812309265137,2,Mixed_Stim.csv,READVersionB.csv,"Read Mixed B","Read Mixed B",TUNA,FISH,Study1,F,25,25,Test,User,-,,Recall,Recall2,1660,Fish,100,1134,1390,1,1,,1
10113024,wvy4uhfk14,Nick_Dissertation_EX2_EP,1,172,2022-01-04T18:11:53+00:00,0.87746906280518,2,Mixed_Stim.csv,READVersionB.csv,"Read Mixed B","Read Mixed B",BRIDGE,WATER,Study1,F,18,8,Test,User,-,,Recall,Recall2,778,,0,-1,-1,0,0,,1
10113024,wvy4uhfk14,Nick_Dissertation_EX2_EP,1,173,2022-01-04T18:11:54+00:00,0.89299201965332,2,Mixed_Stim.csv,READVersionB.csv,"Read Mixed B","Read Mixed B",SOON,BELT,Study1,U,70,35,Test,User,-,,Recall,Recall2,785,,0,-1,-1,0,0,,1
10113024,wvy4uhfk14,Nick_Dissertation_EX2_EP,1,174,2022-01-04T18:11:57+00:00,2.9741089344025,2,Mixed_Stim.csv,READVersionB.csv,"Read Mixed B","Read Mixed B",WAGE,MONEY,Study1,F,8,24,Test,User,-,,Recall,Recall2,2860,Money,100,1558,1998,1,1,,1
10113024,wvy4uhfk14,Nick_Dissertation_EX2_EP,1,175,2022-01-04T18:12:01+00:00,3.9335870742798,2,Mixed_Stim.csv,READVersionB.csv,"Read Mixed B","Read Mixed B",KING,VASE,Study1,U,85,18,Test,User,-,,Recall,Recall2,3822,,0,1929,1929,0,0,,1
10113024,wvy4uhfk14,Nick_Dissertation_EX2_EP,1,176,2022-01-04T18:12:04+00:00,2.8474171161652,2,Mixed_Stim.csv,READVersionB.csv,"Read Mixed B","Read Mixed B",STRONG,ACCIDENT,Study1,U,80,14,Test,User,-,,Recall,Recall2,2727,Weak,16.666666666667,1964,2426,0,0,,1
10113024,wvy4uhfk14,Nick_Dissertation_EX2_EP,1,177,2022-01-04T18:12:05+00:00,1.7878489494324,2,Mixed_Stim.csv,READVersionB.csv,"Read Mixed B","Read Mixed B",DELINQUENT,BAD,Study1,F,6,45,Test,User,-,,Recall,Recall2,1675,Bad,100,1180,1509,1,1,,1
10113024,wvy4uhfk14,Nick_Dissertation_EX2_EP,1,178,2022-01-04T18:12:27+00:00,21.831280946732,2,Mixed_Stim.csv,READVersionB.csv,"Read Mixed B","Read Mixed B",WAY,OUT,Study1,F,16,44,Test,User,-,,Recall,Recall2,21695,"To go",25,7824,21388,0,0,,0.896
10113024,wvy4uhfk14,Nick_Dissertation_EX2_EP,1,179,2022-01-04T18:12:30+00:00,2.4442090988159,2,Mixed_Stim.csv,READVersionB.csv,"Read Mixed B","Read Mixed B",LIFT,WOMAN,Study1,U,69,33,Test,User,-,,Recall,Recall2,2315,Up,0,1806,1971,0,0,,1
10113024,wvy4uhfk14,Nick_Dissertation_EX2_EP,1,180,2022-01-04T18:12:31+00:00,0.86507391929626,2,Mixed_Stim.csv,READVersionB.csv,"Read Mixed B","Read Mixed B",PAW,DOG,Study1,F,15,19,Test,User,-,,Recall,Recall2,761,,0,-1,-1,0,0,,1
10113024,wvy4uhfk14,Nick_Dissertation_EX2_EP,1,181,2022-01-04T18:12:32+00:00,1.2593469619751,2,Mixed_Stim.csv,READVersionB.csv,"Read Mixed B","Read Mixed B",HERD,COW,Study1,F,22,34,Test,User,-,,Recall,Recall2,1153,,0,-1,-1,0,0,,1
10113024,wvy4uhfk14,Nick_Dissertation_EX2_EP,1,182,2022-01-04T18:12:34+00:00,2.1121571063995,2,Mixed_Stim.csv,READVersionB.csv,"Read Mixed B","Read Mixed B",GEOLOGY,ROCK,Study1,F,19,21,Test,User,-,,Recall,Recall2,1993,Rock,100,1452,1739,1,1,,1
10113024,wvy4uhfk14,Nick_Dissertation_EX2_EP,1,183,2022-01-04T18:12:36+00:00,2.4989609718323,2,Mixed_Stim.csv,READVersionB.csv,"Read Mixed B","Read Mixed B",BITTER,COLD,Study1,F,12,13,Test,User,-,,Recall,Recall2,2367,Cold,100,1681,2021,1,1,,1
10113024,wvy4uhfk14,Nick_Dissertation_EX2_EP,1,184,2022-01-04T18:12:39+00:00,2.5293278694153,2,Mixed_Stim.csv,READVersionB.csv,"Read Mixed B","Read Mixed B",CASH,WOULD,Study1,U,83,10,Test,User,-,,Recall,Recall2,2200,Money,20,1379,1845,0,0,,1
10113024,wvy4uhfk14,Nick_Dissertation_EX2_EP,1,185,2022-01-04T18:12:40+00:00,1.1256241798401,2,Mixed_Stim.csv,READVersionB.csv,"Read Mixed B","Read Mixed B",ART,LION,Study1,U,79,7,Test,User,-,,Recall,Recall2,1013,,0,-1,-1,0,0,,1
10113024,wvy4uhfk14,Nick_Dissertation_EX2_EP,1,186,2022-01-04T18:12:41+00:00,1.1726520061493,2,Mixed_Stim.csv,READVersionB.csv,"Read Mixed B","Read Mixed B",ARTERY,BRONZE,Study1,U,74,39,Test,User,-,,Recall,Recall2,1053,,0,-1,-1,0,0,,1
10113024,wvy4uhfk14,Nick_Dissertation_EX2_EP,1,187,2022-01-04T18:12:43+00:00,1.9389197826385,2,Mixed_Stim.csv,READVersionB.csv,"Read Mixed B","Read Mixed B",SWAN,BIRD,Study1,F,14,37,Test,User,-,,Recall,Recall2,1814,Lake,0,1245,1654,0,0,,1
10113024,wvy4uhfk14,Nick_Dissertation_EX2_EP,1,188,2022-01-04T18:12:47+00:00,3.8203780651093,2,Mixed_Stim.csv,READVersionB.csv,"Read Mixed B","Read Mixed B",HYGIENE,CLEAN,Study1,F,17,26,Test,User,-,,Recall,Recall2,3703,Good,0,1055,2170,0,0,,1
10113024,wvy4uhfk14,Nick_Dissertation_EX2_EP,1,189,2022-01-04T18:12:48+00:00,0.76459097862244,2,Mixed_Stim.csv,READVersionB.csv,"Read Mixed B","Read Mixed B",,,,,,0,Instruct,User,-,"You have completed this section. Please press Enter.",,Instruct7,670,,,-1,-1,,,,1
10113024,wvy4uhfk14,Nick_Dissertation_EX2_EP,1,190,2022-01-04T18:12:49+00:00,1.5791261196136,2,Mixed_Stim.csv,READVersionB.csv,"Read Mixed B","Read Mixed B",,,,,,0,Instruct,User,-,"The following screen will ask you a few questions abour your experience today. You must complete these questions to receive credit.",,Instruct8,1484,,,-1,-1,,,,1
