Username,ID,ExperimentName,Session,Trial,Date,TimeDif,"Condition Number","Stimuli File","Order File","Condition Description","Condition Notes",Stimuli*Cue,Stimuli*Answer,Stimuli*Shuffle,"Stimuli*Stimuli Notes",Stimuli*Value,Procedure*Item,"Procedure*Trial Type","Procedure*Max Time","Procedure*Min Time",Procedure*Text,"Procedure*Procedure Notes",Procedure*Shuffle,Response*RT,Response*Response,Response*Accuracy,Response*RTfirst,Response*RTlast,Response*strictAcc,Response*lenientAcc,Response*focus,Response*Focus
M202782656_VAS,9v9ke9u9jl,Nick_Dissertation_EX2_EP_MSU_TEXAS,1,1,2022-10-28T16:24:43+00:00,12.781543970108,4,Pure_Forward.csv,READVersionB.csv,"Read Pure F B","Read Pure F B",,,,,,0,Instruct,-,10,"Please study each of the following word pairs. Remember that your memory will be tested! Each pair will be displayed on the computer screen and will automatically advance to the next pair. Press ENTER when you are ready to begin.",Initial_Instruct,Instruct1,12537,,,-1,-1,,,,1
M202782656_VAS,9v9ke9u9jl,Nick_Dissertation_EX2_EP_MSU_TEXAS,1,2,2022-10-28T16:24:52+00:00,8.3014190196991,4,Pure_Forward.csv,READVersionB.csv,"Read Pure F B","Read Pure F B",NOODLE,STRING,BUFFER3,Buffer,92,53,STUDY,8,8,,Study/JOL,BUFFER,8001,,,-1,-1,,,,1
M202782656_VAS,9v9ke9u9jl,Nick_Dissertation_EX2_EP_MSU_TEXAS,1,3,2022-10-28T16:25:00+00:00,8.1331100463867,4,Pure_Forward.csv,READVersionB.csv,"Read Pure F B","Read Pure F B",SHRIMP,FISH,BUFFER3,Buffer,93,54,STUDY,8,8,,Study/JOL,BUFFER,8000,,,-1,-1,,,,1
M202782656_VAS,9v9ke9u9jl,Nick_Dissertation_EX2_EP_MSU_TEXAS,1,4,2022-10-28T16:25:08+00:00,8.1352610588074,4,Pure_Forward.csv,READVersionB.csv,"Read Pure F B","Read Pure F B",ICE,FROZEN,BUFFER3,Buffer,94,56,STUDY,8,8,,Study/JOL,BUFFER,8000,,,-1,-1,,,,1
M202782656_VAS,9v9ke9u9jl,Nick_Dissertation_EX2_EP_MSU_TEXAS,1,5,2022-10-28T16:25:16+00:00,8.1285848617554,4,Pure_Forward.csv,READVersionB.csv,"Read Pure F B","Read Pure F B",CARROT,POTATO,BUFFER3,Buffer,91,52,STUDY,8,8,,Study/JOL,BUFFER,8000,,,-1,-1,,,,1
M202782656_VAS,9v9ke9u9jl,Nick_Dissertation_EX2_EP_MSU_TEXAS,1,6,2022-10-28T16:25:24+00:00,8.1352670192719,4,Pure_Forward.csv,READVersionB.csv,"Read Pure F B","Read Pure F B",CAMP,ADVENTURE,BUFFER3,Buffer,95,55,STUDY,8,8,,Study/JOL,BUFFER,8002,,,-1,-1,,,,1
M202782656_VAS,9v9ke9u9jl,Nick_Dissertation_EX2_EP_MSU_TEXAS,1,7,2022-10-28T16:25:32+00:00,8.1332681179047,4,Pure_Forward.csv,READVersionB.csv,"Read Pure F B","Read Pure F B",CHORE,WORK,Study2,F,109,70,STUDY,8,8,,Study/JOL,"Study Phase",8000,,,-1,-1,,,,1
M202782656_VAS,9v9ke9u9jl,Nick_Dissertation_EX2_EP_MSU_TEXAS,1,8,2022-10-28T16:25:41+00:00,8.1319818496704,4,Pure_Forward.csv,READVersionB.csv,"Read Pure F B","Read Pure F B",GROWTH,HEIGHT,Study2,F,100,82,STUDY,8,8,,Study/JOL,"Study Phase",8000,,,-1,-1,,,,1
M202782656_VAS,9v9ke9u9jl,Nick_Dissertation_EX2_EP_MSU_TEXAS,1,9,2022-10-28T16:25:49+00:00,8.1375830173492,4,Pure_Forward.csv,READVersionB.csv,"Read Pure F B","Read Pure F B",FURRY,DOG,Study2,F,162,74,STUDY,8,8,,Study/JOL,"Study Phase",8000,,,-1,-1,,,,1
M202782656_VAS,9v9ke9u9jl,Nick_Dissertation_EX2_EP_MSU_TEXAS,1,10,2022-10-28T16:25:57+00:00,8.1284849643707,4,Pure_Forward.csv,READVersionB.csv,"Read Pure F B","Read Pure F B",FAMINE,HUNGER,Study2,F,110,85,STUDY,8,8,,Study/JOL,"Study Phase",8000,,,-1,-1,,,,1
M202782656_VAS,9v9ke9u9jl,Nick_Dissertation_EX2_EP_MSU_TEXAS,1,11,2022-10-28T16:26:05+00:00,8.1336250305176,4,Pure_Forward.csv,READVersionB.csv,"Read Pure F B","Read Pure F B",DOCUMENT,PAPER,Study2,F,169,89,STUDY,8,8,,Study/JOL,"Study Phase",8001,,,-1,-1,,,,1
M202782656_VAS,9v9ke9u9jl,Nick_Dissertation_EX2_EP_MSU_TEXAS,1,12,2022-10-28T16:26:13+00:00,8.1355230808258,4,Pure_Forward.csv,READVersionB.csv,"Read Pure F B","Read Pure F B",CLUE,GAME,Study2,F,157,72,STUDY,8,8,,Study/JOL,"Study Phase",8001,,,-1,-1,,,,1
M202782656_VAS,9v9ke9u9jl,Nick_Dissertation_EX2_EP_MSU_TEXAS,1,13,2022-10-28T16:26:21+00:00,8.131208896637,4,Pure_Forward.csv,READVersionB.csv,"Read Pure F B","Read Pure F B",ADJOURN,END,Study2,F,161,64,STUDY,8,8,,Study/JOL,"Study Phase",8000,,,-1,-1,,,,1
M202782656_VAS,9v9ke9u9jl,Nick_Dissertation_EX2_EP_MSU_TEXAS,1,14,2022-10-28T16:26:29+00:00,8.1300201416016,4,Pure_Forward.csv,READVersionB.csv,"Read Pure F B","Read Pure F B",SIP,DRINK,Study2,F,97,60,STUDY,8,8,,Study/JOL,"Study Phase",8001,,,-1,-1,,,,1
M202782656_VAS,9v9ke9u9jl,Nick_Dissertation_EX2_EP_MSU_TEXAS,1,15,2022-10-28T16:26:37+00:00,8.1301379203796,4,Pure_Forward.csv,READVersionB.csv,"Read Pure F B","Read Pure F B",ATTORNEY,LAW,Study2,F,104,76,STUDY,8,8,,Study/JOL,"Study Phase",8001,,,-1,-1,,,,1
M202782656_VAS,9v9ke9u9jl,Nick_Dissertation_EX2_EP_MSU_TEXAS,1,16,2022-10-28T16:26:46+00:00,8.1329200267792,4,Pure_Forward.csv,READVersionB.csv,"Read Pure F B","Read Pure F B",CAVE,DARK,Study2,F,98,73,STUDY,8,8,,Study/JOL,"Study Phase",8001,,,-1,-1,,,,1
M202782656_VAS,9v9ke9u9jl,Nick_Dissertation_EX2_EP_MSU_TEXAS,1,17,2022-10-28T16:26:54+00:00,8.128289937973,4,Pure_Forward.csv,READVersionB.csv,"Read Pure F B","Read Pure F B",SHOELACE,TIE,Study2,F,159,77,STUDY,8,8,,Study/JOL,"Study Phase",8000,,,-1,-1,,,,1
M202782656_VAS,9v9ke9u9jl,Nick_Dissertation_EX2_EP_MSU_TEXAS,1,18,2022-10-28T16:27:02+00:00,8.2240600585938,4,Pure_Forward.csv,READVersionB.csv,"Read Pure F B","Read Pure F B",SEIZE,TAKE,Study2,F,99,61,STUDY,8,8,,Study/JOL,"Study Phase",8000,,,-1,-1,,,,1
M202782656_VAS,9v9ke9u9jl,Nick_Dissertation_EX2_EP_MSU_TEXAS,1,19,2022-10-28T16:27:10+00:00,8.1328539848328,4,Pure_Forward.csv,READVersionB.csv,"Read Pure F B","Read Pure F B",DIVISION,MATH,Study2,F,103,62,STUDY,8,8,,Study/JOL,"Study Phase",8001,,,-1,-1,,,,1
M202782656_VAS,9v9ke9u9jl,Nick_Dissertation_EX2_EP_MSU_TEXAS,1,20,2022-10-28T16:27:18+00:00,8.1362149715424,4,Pure_Forward.csv,READVersionB.csv,"Read Pure F B","Read Pure F B",WORD,SENTENCE,Study2,F,101,66,STUDY,8,8,,Study/JOL,"Study Phase",8001,,,-1,-1,,,,1
M202782656_VAS,9v9ke9u9jl,Nick_Dissertation_EX2_EP_MSU_TEXAS,1,21,2022-10-28T16:27:26+00:00,8.1385889053345,4,Pure_Forward.csv,READVersionB.csv,"Read Pure F B","Read Pure F B",WASP,BUG,Study2,F,102,92,STUDY,8,8,,Study/JOL,"Study Phase",8002,,,-1,-1,,,,1
M202782656_VAS,9v9ke9u9jl,Nick_Dissertation_EX2_EP_MSU_TEXAS,1,22,2022-10-28T16:27:34+00:00,8.1409380435944,4,Pure_Forward.csv,READVersionB.csv,"Read Pure F B","Read Pure F B",CHILI,HOT,Study2,F,107,59,STUDY,8,8,,Study/JOL,"Study Phase",8001,,,-1,-1,,,,1
M202782656_VAS,9v9ke9u9jl,Nick_Dissertation_EX2_EP_MSU_TEXAS,1,23,2022-10-28T16:27:43+00:00,8.1335780620575,4,Pure_Forward.csv,READVersionB.csv,"Read Pure F B","Read Pure F B",PILOT,PLANE,Study2,F,114,90,STUDY,8,8,,Study/JOL,"Study Phase",8001,,,-1,-1,,,,1
M202782656_VAS,9v9ke9u9jl,Nick_Dissertation_EX2_EP_MSU_TEXAS,1,24,2022-10-28T16:27:51+00:00,8.134495973587,4,Pure_Forward.csv,READVersionB.csv,"Read Pure F B","Read Pure F B",FANTASTIC,GREAT,Study2,F,105,80,STUDY,8,8,,Study/JOL,"Study Phase",8002,,,-1,-1,,,,1
M202782656_VAS,9v9ke9u9jl,Nick_Dissertation_EX2_EP_MSU_TEXAS,1,25,2022-10-28T16:27:59+00:00,8.1287429332733,4,Pure_Forward.csv,READVersionB.csv,"Read Pure F B","Read Pure F B",RACKET,BALL,Study2,F,108,91,STUDY,8,8,,Study/JOL,"Study Phase",8001,,,-1,-1,,,,1
M202782656_VAS,9v9ke9u9jl,Nick_Dissertation_EX2_EP_MSU_TEXAS,1,26,2022-10-28T16:28:07+00:00,8.1317360401154,4,Pure_Forward.csv,READVersionB.csv,"Read Pure F B","Read Pure F B",AFFECTION,LOVE,Study2,F,175,93,STUDY,8,8,,Study/JOL,"Study Phase",8001,,,-1,-1,,,,1
M202782656_VAS,9v9ke9u9jl,Nick_Dissertation_EX2_EP_MSU_TEXAS,1,27,2022-10-28T16:28:15+00:00,8.1314210891724,4,Pure_Forward.csv,READVersionB.csv,"Read Pure F B","Read Pure F B",DETECTIVE,MYSTERY,Study2,F,160,67,STUDY,8,8,,Study/JOL,"Study Phase",8000,,,-1,-1,,,,1
M202782656_VAS,9v9ke9u9jl,Nick_Dissertation_EX2_EP_MSU_TEXAS,1,28,2022-10-28T16:28:23+00:00,8.1314768791199,4,Pure_Forward.csv,READVersionB.csv,"Read Pure F B","Read Pure F B",CACTUS,PLANT,Study2,F,158,95,STUDY,8,8,,Study/JOL,"Study Phase",8001,,,-1,-1,,,,1
M202782656_VAS,9v9ke9u9jl,Nick_Dissertation_EX2_EP_MSU_TEXAS,1,29,2022-10-28T16:28:31+00:00,8.1336340904236,4,Pure_Forward.csv,READVersionB.csv,"Read Pure F B","Read Pure F B",PAW,DOG,Study1,F,15,23,STUDY,8,8,,Study/JOL,"Study Phase",8002,,,-1,-1,,,,1
M202782656_VAS,9v9ke9u9jl,Nick_Dissertation_EX2_EP_MSU_TEXAS,1,30,2022-10-28T16:28:40+00:00,8.1331279277802,4,Pure_Forward.csv,READVersionB.csv,"Read Pure F B","Read Pure F B",SCALP,HEAD,Study2,F,165,68,STUDY,8,8,,Study/JOL,"Study Phase",8001,,,-1,-1,,,,1
M202782656_VAS,9v9ke9u9jl,Nick_Dissertation_EX2_EP_MSU_TEXAS,1,31,2022-10-28T16:28:48+00:00,8.1413130760193,4,Pure_Forward.csv,READVersionB.csv,"Read Pure F B","Read Pure F B",ENOUGH,FULL,Study2,F,96,86,STUDY,8,8,,Study/JOL,"Study Phase",8001,,,-1,-1,,,,1
M202782656_VAS,9v9ke9u9jl,Nick_Dissertation_EX2_EP_MSU_TEXAS,1,32,2022-10-28T16:28:56+00:00,8.1324241161346,4,Pure_Forward.csv,READVersionB.csv,"Read Pure F B","Read Pure F B",LITTER,TRASH,Study2,F,163,84,STUDY,8,8,,Study/JOL,"Study Phase",8000,,,-1,-1,,,,1
M202782656_VAS,9v9ke9u9jl,Nick_Dissertation_EX2_EP_MSU_TEXAS,1,33,2022-10-28T16:29:04+00:00,8.1344969272614,4,Pure_Forward.csv,READVersionB.csv,"Read Pure F B","Read Pure F B",CHERRY,RED,Study2,F,164,71,STUDY,8,8,,Study/JOL,"Study Phase",8001,,,-1,-1,,,,1
M202782656_VAS,9v9ke9u9jl,Nick_Dissertation_EX2_EP_MSU_TEXAS,1,34,2022-10-28T16:29:12+00:00,8.1339929103851,4,Pure_Forward.csv,READVersionB.csv,"Read Pure F B","Read Pure F B",CHOP,CUT,Study2,F,167,79,STUDY,8,8,,Study/JOL,"Study Phase",8000,,,-1,-1,,,,1
M202782656_VAS,9v9ke9u9jl,Nick_Dissertation_EX2_EP_MSU_TEXAS,1,35,2022-10-28T16:29:20+00:00,8.1336579322815,4,Pure_Forward.csv,READVersionB.csv,"Read Pure F B","Read Pure F B",DRIVER,CAR,Study2,F,166,69,STUDY,8,8,,Study/JOL,"Study Phase",8001,,,-1,-1,,,,1
M202782656_VAS,9v9ke9u9jl,Nick_Dissertation_EX2_EP_MSU_TEXAS,1,36,2022-10-28T16:29:28+00:00,8.1324460506439,4,Pure_Forward.csv,READVersionB.csv,"Read Pure F B","Read Pure F B",CHILL,COLD,Study2,F,174,63,STUDY,8,8,,Study/JOL,"Study Phase",8002,,,-1,-1,,,,1
M202782656_VAS,9v9ke9u9jl,Nick_Dissertation_EX2_EP_MSU_TEXAS,1,37,2022-10-28T16:29:37+00:00,8.1524460315704,4,Pure_Forward.csv,READVersionB.csv,"Read Pure F B","Read Pure F B",MULE,DONKEY,Study2,F,168,75,STUDY,8,8,,Study/JOL,"Study Phase",8001,,,-1,-1,,,,1
M202782656_VAS,9v9ke9u9jl,Nick_Dissertation_EX2_EP_MSU_TEXAS,1,38,2022-10-28T16:29:45+00:00,8.1344530582428,4,Pure_Forward.csv,READVersionB.csv,"Read Pure F B","Read Pure F B",CHILI,HOT,Study2,F,107,59,STUDY,8,8,,Study/JOL,"Study Phase",8000,,,-1,-1,,,,1
M202782656_VAS,9v9ke9u9jl,Nick_Dissertation_EX2_EP_MSU_TEXAS,1,39,2022-10-28T16:29:53+00:00,8.1328399181366,4,Pure_Forward.csv,READVersionB.csv,"Read Pure F B","Read Pure F B",BLAZE,FIRE,Study2,F,115,65,STUDY,8,8,,Study/JOL,"Study Phase",8001,,,-1,-1,,,,1
M202782656_VAS,9v9ke9u9jl,Nick_Dissertation_EX2_EP_MSU_TEXAS,1,40,2022-10-28T16:30:01+00:00,8.1330649852753,4,Pure_Forward.csv,READVersionB.csv,"Read Pure F B","Read Pure F B",LATCH,KEY,Study2,F,106,88,STUDY,8,8,,Study/JOL,"Study Phase",8002,,,-1,-1,,,,1
M202782656_VAS,9v9ke9u9jl,Nick_Dissertation_EX2_EP_MSU_TEXAS,1,41,2022-10-28T16:30:09+00:00,8.141597032547,4,Pure_Forward.csv,READVersionB.csv,"Read Pure F B","Read Pure F B",DROWSY,SLEEP,Study2,F,111,94,STUDY,8,8,,Study/JOL,"Study Phase",8002,,,-1,-1,,,,1
M202782656_VAS,9v9ke9u9jl,Nick_Dissertation_EX2_EP_MSU_TEXAS,1,42,2022-10-28T16:30:17+00:00,8.1384339332581,4,Pure_Forward.csv,READVersionB.csv,"Read Pure F B","Read Pure F B",ATTIRE,CLOTHES,Study2,F,113,78,STUDY,8,8,,Study/JOL,"Study Phase",8001,,,-1,-1,,,,1
M202782656_VAS,9v9ke9u9jl,Nick_Dissertation_EX2_EP_MSU_TEXAS,1,43,2022-10-28T16:30:25+00:00,8.1308250427246,4,Pure_Forward.csv,READVersionB.csv,"Read Pure F B","Read Pure F B",SHEARS,SCISSORS,Study2,F,172,57,STUDY,8,8,,Study/JOL,"Study Phase",8000,,,-1,-1,,,,1
M202782656_VAS,9v9ke9u9jl,Nick_Dissertation_EX2_EP_MSU_TEXAS,1,44,2022-10-28T16:30:33+00:00,8.1318790912628,4,Pure_Forward.csv,READVersionB.csv,"Read Pure F B","Read Pure F B",FEUD,FIGHT,Study2,F,173,87,STUDY,8,8,,Study/JOL,"Study Phase",8000,,,-1,-1,,,,1
M202782656_VAS,9v9ke9u9jl,Nick_Dissertation_EX2_EP_MSU_TEXAS,1,45,2022-10-28T16:30:42+00:00,8.1328570842743,4,Pure_Forward.csv,READVersionB.csv,"Read Pure F B","Read Pure F B",EXTENSION,LONG,Study2,F,156,81,STUDY,8,8,,Study/JOL,"Study Phase",8001,,,-1,-1,,,,1
M202782656_VAS,9v9ke9u9jl,Nick_Dissertation_EX2_EP_MSU_TEXAS,1,46,2022-10-28T16:30:50+00:00,8.1342458724976,4,Pure_Forward.csv,READVersionB.csv,"Read Pure F B","Read Pure F B",INCENSE,SMELL,Study2,F,170,96,STUDY,8,8,,Study/JOL,"Study Phase",8000,,,-1,-1,,,,1
M202782656_VAS,9v9ke9u9jl,Nick_Dissertation_EX2_EP_MSU_TEXAS,1,47,2022-10-28T16:30:58+00:00,8.1354229450226,4,Pure_Forward.csv,READVersionB.csv,"Read Pure F B","Read Pure F B",DAYS,WEEKS,BUFFER4,Buffer,176,98,STUDY,8,8,,Study/JOL,BUFFER2,8000,,,-1,-1,,,,1
M202782656_VAS,9v9ke9u9jl,Nick_Dissertation_EX2_EP_MSU_TEXAS,1,48,2022-10-28T16:31:06+00:00,8.149875164032,4,Pure_Forward.csv,READVersionB.csv,"Read Pure F B","Read Pure F B",TOOL,SHED,BUFFER4,Buffer,178,100,STUDY,8,8,,Study/JOL,BUFFER2,8001,,,-1,-1,,,,1
M202782656_VAS,9v9ke9u9jl,Nick_Dissertation_EX2_EP_MSU_TEXAS,1,49,2022-10-28T16:31:14+00:00,8.1330800056458,4,Pure_Forward.csv,READVersionB.csv,"Read Pure F B","Read Pure F B",OCTOBER,SPOOKY,BUFFER4,Buffer,180,97,STUDY,8,8,,Study/JOL,BUFFER2,8000,,,-1,-1,,,,1
M202782656_VAS,9v9ke9u9jl,Nick_Dissertation_EX2_EP_MSU_TEXAS,1,50,2022-10-28T16:31:22+00:00,8.1280679702759,4,Pure_Forward.csv,READVersionB.csv,"Read Pure F B","Read Pure F B",MONTH,YEAR,BUFFER4,Buffer,177,99,STUDY,8,8,,Study/JOL,BUFFER2,8000,,,-1,-1,,,,1
M202782656_VAS,9v9ke9u9jl,Nick_Dissertation_EX2_EP_MSU_TEXAS,1,51,2022-10-28T16:31:30+00:00,8.1346549987793,4,Pure_Forward.csv,READVersionB.csv,"Read Pure F B","Read Pure F B",SPRING,MARCH,BUFFER4,Buffer,179,101,STUDY,8,8,,Study/JOL,BUFFER2,8000,,,-1,-1,,,,1
M202782656_VAS,9v9ke9u9jl,Nick_Dissertation_EX2_EP_MSU_TEXAS,1,52,2022-10-28T16:31:33+00:00,2.1309359073639,4,Pure_Forward.csv,READVersionB.csv,"Read Pure F B","Read Pure F B",,,,,,0,Instruct,User,-,"You have completed this section. Please press Enter.",Filler_Instruction,Instruct2,2000,,,-1,-1,,,,1
M202782656_VAS,9v9ke9u9jl,Nick_Dissertation_EX2_EP_MSU_TEXAS,1,53,2022-10-28T16:33:33+00:00,120.48741102219,4,Pure_Forward.csv,READVersionB.csv,"Read Pure F B","Read Pure F B",,,,,,0,FreeRecall,120,120,"Please list the 50 US states in alphabetical order. The task will automatically advance to the next screen after two minutes.",,Filler1,120000,"Alabama Alaska Arizona Arkansas California Colorado Connecticut Delaware Florida Georgia Hawaii Idaho Illinois Indiana ",0,8775,110060,0,0,,1
M202782656_VAS,9v9ke9u9jl,Nick_Dissertation_EX2_EP_MSU_TEXAS,1,54,2022-10-28T16:33:46+00:00,12.522876024246,4,Pure_Forward.csv,READVersionB.csv,"Read Pure F B","Read Pure F B",,,,,,0,Instruct,-,10,"You will now be presented with the first word from each of the previously studied item pairs. Please type the missing word. If you do not know the word, you may guess or press Enter to skip forward to the next pair.",,Instruct3,12378,,,-1,-1,,,,1
M202782656_VAS,9v9ke9u9jl,Nick_Dissertation_EX2_EP_MSU_TEXAS,1,55,2022-10-28T16:33:51+00:00,5.9183430671692,4,Pure_Forward.csv,READVersionB.csv,"Read Pure F B","Read Pure F B",DROWSY,SLEEP,Study2,F,111,94,Test,User,-,,Recall,Recall1,5780,Sleepy,90.909090909091,2660,4409,0,1,,1
M202782656_VAS,9v9ke9u9jl,Nick_Dissertation_EX2_EP_MSU_TEXAS,1,56,2022-10-28T16:33:56+00:00,4.1958220005035,4,Pure_Forward.csv,READVersionB.csv,"Read Pure F B","Read Pure F B",CLUE,GAME,Study2,F,157,72,Test,User,-,,Recall,Recall1,4066,game,100,1931,2458,1,1,,1
M202782656_VAS,9v9ke9u9jl,Nick_Dissertation_EX2_EP_MSU_TEXAS,1,57,2022-10-28T16:34:00+00:00,4.6409118175507,4,Pure_Forward.csv,READVersionB.csv,"Read Pure F B","Read Pure F B",INCENSE,SMELL,Study2,F,170,96,Test,User,-,,Recall,Recall1,4508,smell,100,1910,3038,1,1,,1
M202782656_VAS,9v9ke9u9jl,Nick_Dissertation_EX2_EP_MSU_TEXAS,1,58,2022-10-28T16:34:03+00:00,2.8202431201935,4,Pure_Forward.csv,READVersionB.csv,"Read Pure F B","Read Pure F B",LATCH,KEY,Study2,F,106,88,Test,User,-,,Recall,Recall1,2693,keyy,85.714285714286,1778,2410,0,1,,1
M202782656_VAS,9v9ke9u9jl,Nick_Dissertation_EX2_EP_MSU_TEXAS,1,59,2022-10-28T16:34:13+00:00,9.8120260238647,4,Pure_Forward.csv,READVersionB.csv,"Read Pure F B","Read Pure F B",DOCUMENT,PAPER,Study2,F,169,89,Test,User,-,,Recall,Recall1,9680,,0,6200,6891,0,0,,1
M202782656_VAS,9v9ke9u9jl,Nick_Dissertation_EX2_EP_MSU_TEXAS,1,60,2022-10-28T16:34:15+00:00,2.4705548286438,4,Pure_Forward.csv,READVersionB.csv,"Read Pure F B","Read Pure F B",RACKET,BALL,Study2,F,108,91,Test,User,-,,Recall,Recall1,2324,ball,100,1280,1959,1,1,,1
M202782656_VAS,9v9ke9u9jl,Nick_Dissertation_EX2_EP_MSU_TEXAS,1,61,2022-10-28T16:34:18+00:00,2.4577431678772,4,Pure_Forward.csv,READVersionB.csv,"Read Pure F B","Read Pure F B",CHORE,WORK,Study2,F,109,70,Test,User,-,,Recall,Recall1,2324,work,100,1236,2031,1,1,,1
M202782656_VAS,9v9ke9u9jl,Nick_Dissertation_EX2_EP_MSU_TEXAS,1,62,2022-10-28T16:34:19+00:00,1.0830099582672,4,Pure_Forward.csv,READVersionB.csv,"Read Pure F B","Read Pure F B",PILOT,PLANE,Study2,F,114,90,Test,User,-,,Recall,Recall1,951,,0,-1,-1,0,0,,1
M202782656_VAS,9v9ke9u9jl,Nick_Dissertation_EX2_EP_MSU_TEXAS,1,63,2022-10-28T16:34:21+00:00,1.6366879940033,4,Pure_Forward.csv,READVersionB.csv,"Read Pure F B","Read Pure F B",FANTASTIC,GREAT,Study2,F,105,80,Test,User,-,,Recall,Recall1,1508,plane,20,270,999,0,0,,1
M202782656_VAS,9v9ke9u9jl,Nick_Dissertation_EX2_EP_MSU_TEXAS,1,64,2022-10-28T16:34:24+00:00,2.95343708992,4,Pure_Forward.csv,READVersionB.csv,"Read Pure F B","Read Pure F B",CHILL,COLD,Study2,F,174,63,Test,User,-,,Recall,Recall1,2824,cold,100,1813,2381,1,1,,1
M202782656_VAS,9v9ke9u9jl,Nick_Dissertation_EX2_EP_MSU_TEXAS,1,65,2022-10-28T16:34:26+00:00,2.1587820053101,4,Pure_Forward.csv,READVersionB.csv,"Read Pure F B","Read Pure F B",BLAZE,FIRE,Study2,F,115,65,Test,User,-,,Recall,Recall1,2018,fire,100,1118,1774,1,1,,1
M202782656_VAS,9v9ke9u9jl,Nick_Dissertation_EX2_EP_MSU_TEXAS,1,66,2022-10-28T16:34:29+00:00,2.8407309055328,4,Pure_Forward.csv,READVersionB.csv,"Read Pure F B","Read Pure F B",PAW,DOG,Study1,F,15,23,Test,User,-,,Recall,Recall1,2710,,0,-1,-1,0,0,,1
M202782656_VAS,9v9ke9u9jl,Nick_Dissertation_EX2_EP_MSU_TEXAS,1,67,2022-10-28T16:34:30+00:00,1.8602740764618,4,Pure_Forward.csv,READVersionB.csv,"Read Pure F B","Read Pure F B",LITTER,TRASH,Study2,F,163,84,Test,User,-,,Recall,Recall1,1728,,0,-1,-1,0,0,,1
M202782656_VAS,9v9ke9u9jl,Nick_Dissertation_EX2_EP_MSU_TEXAS,1,68,2022-10-28T16:34:33+00:00,2.8362259864807,4,Pure_Forward.csv,READVersionB.csv,"Read Pure F B","Read Pure F B",CACTUS,PLANT,Study2,F,158,95,Test,User,-,,Recall,Recall1,2697,plant,100,1085,2220,1,1,,1
M202782656_VAS,9v9ke9u9jl,Nick_Dissertation_EX2_EP_MSU_TEXAS,1,69,2022-10-28T16:34:36+00:00,2.8886749744415,4,Pure_Forward.csv,READVersionB.csv,"Read Pure F B","Read Pure F B",EXTENSION,LONG,Study2,F,156,81,Test,User,-,,Recall,Recall1,2755,long,100,1420,2180,1,1,,1
M202782656_VAS,9v9ke9u9jl,Nick_Dissertation_EX2_EP_MSU_TEXAS,1,70,2022-10-28T16:34:39+00:00,2.9764909744263,4,Pure_Forward.csv,READVersionB.csv,"Read Pure F B","Read Pure F B",CAVE,DARK,Study2,F,98,73,Test,User,-,,Recall,Recall1,2828,dark,100,1321,2461,1,1,,1
M202782656_VAS,9v9ke9u9jl,Nick_Dissertation_EX2_EP_MSU_TEXAS,1,71,2022-10-28T16:34:42+00:00,2.939866065979,4,Pure_Forward.csv,READVersionB.csv,"Read Pure F B","Read Pure F B",SHOELACE,TIE,Study2,F,159,77,Test,User,-,,Recall,Recall1,2810,tie,100,1860,2384,1,1,,1
M202782656_VAS,9v9ke9u9jl,Nick_Dissertation_EX2_EP_MSU_TEXAS,1,72,2022-10-28T16:34:45+00:00,3.0029098987579,4,Pure_Forward.csv,READVersionB.csv,"Read Pure F B","Read Pure F B",MULE,DONKEY,Study2,F,168,75,Test,User,-,,Recall,Recall1,2872,donkey,100,1180,2381,1,1,,1
M202782656_VAS,9v9ke9u9jl,Nick_Dissertation_EX2_EP_MSU_TEXAS,1,73,2022-10-28T16:34:47+00:00,2.3024299144745,4,Pure_Forward.csv,READVersionB.csv,"Read Pure F B","Read Pure F B",CHOP,CUT,Study2,F,167,79,Test,User,-,,Recall,Recall1,2162,cut,100,1257,1683,1,1,,1
M202782656_VAS,9v9ke9u9jl,Nick_Dissertation_EX2_EP_MSU_TEXAS,1,74,2022-10-28T16:34:50+00:00,2.2998361587524,4,Pure_Forward.csv,READVersionB.csv,"Read Pure F B","Read Pure F B",FEUD,FIGHT,Study2,F,173,87,Test,User,-,,Recall,Recall1,2167,,0,-1,-1,0,0,,1
M202782656_VAS,9v9ke9u9jl,Nick_Dissertation_EX2_EP_MSU_TEXAS,1,75,2022-10-28T16:34:52+00:00,2.2999160289764,4,Pure_Forward.csv,READVersionB.csv,"Read Pure F B","Read Pure F B",DETECTIVE,MYSTERY,Study2,F,160,67,Test,User,-,,Recall,Recall1,2156,,0,-1,-1,0,0,,1
M202782656_VAS,9v9ke9u9jl,Nick_Dissertation_EX2_EP_MSU_TEXAS,1,76,2022-10-28T16:34:54+00:00,2.3776938915253,4,Pure_Forward.csv,READVersionB.csv,"Read Pure F B","Read Pure F B",CHILI,HOT,Study2,F,107,59,Test,User,-,,Recall,Recall1,2246,hot,100,1360,1842,1,1,,1
M202782656_VAS,9v9ke9u9jl,Nick_Dissertation_EX2_EP_MSU_TEXAS,1,77,2022-10-28T16:34:58+00:00,3.5864109992981,4,Pure_Forward.csv,READVersionB.csv,"Read Pure F B","Read Pure F B",FURRY,DOG,Study2,F,162,74,Test,User,-,,Recall,Recall1,3454,,0,-1,-1,0,0,,1
M202782656_VAS,9v9ke9u9jl,Nick_Dissertation_EX2_EP_MSU_TEXAS,1,78,2022-10-28T16:35:04+00:00,6.4501130580902,4,Pure_Forward.csv,READVersionB.csv,"Read Pure F B","Read Pure F B",SHEARS,SCISSORS,Study2,F,172,57,Test,User,-,,Recall,Recall1,6315,cut,18.181818181818,1427,5923,0,0,,1
M202782656_VAS,9v9ke9u9jl,Nick_Dissertation_EX2_EP_MSU_TEXAS,1,79,2022-10-28T16:35:07+00:00,2.7937049865723,4,Pure_Forward.csv,READVersionB.csv,"Read Pure F B","Read Pure F B",CHILI,HOT,Study2,F,107,59,Test,User,-,,Recall,Recall1,2666,hot,100,1617,2248,1,1,,1
M202782656_VAS,9v9ke9u9jl,Nick_Dissertation_EX2_EP_MSU_TEXAS,1,80,2022-10-28T16:35:11+00:00,3.58988904953,4,Pure_Forward.csv,READVersionB.csv,"Read Pure F B","Read Pure F B",DRIVER,CAR,Study2,F,166,69,Test,User,-,,Recall,Recall1,3457,car,100,1690,2729,1,1,,1
M202782656_VAS,9v9ke9u9jl,Nick_Dissertation_EX2_EP_MSU_TEXAS,1,81,2022-10-28T16:35:15+00:00,3.7779619693756,4,Pure_Forward.csv,READVersionB.csv,"Read Pure F B","Read Pure F B",GROWTH,HEIGHT,Study2,F,100,82,Test,User,-,,Recall,Recall1,3629,length,50,1877,3261,0,0,,1
M202782656_VAS,9v9ke9u9jl,Nick_Dissertation_EX2_EP_MSU_TEXAS,1,82,2022-10-28T16:35:22+00:00,7.1872789859772,4,Pure_Forward.csv,READVersionB.csv,"Read Pure F B","Read Pure F B",FAMINE,HUNGER,Study2,F,110,85,Test,User,-,,Recall,Recall1,7053,hunger,100,1501,6915,1,1,,1
M202782656_VAS,9v9ke9u9jl,Nick_Dissertation_EX2_EP_MSU_TEXAS,1,83,2022-10-28T16:35:24+00:00,2.742635011673,4,Pure_Forward.csv,READVersionB.csv,"Read Pure F B","Read Pure F B",SIP,DRINK,Study2,F,97,60,Test,User,-,,Recall,Recall1,2608,drink,100,1212,2177,1,1,,1
M202782656_VAS,9v9ke9u9jl,Nick_Dissertation_EX2_EP_MSU_TEXAS,1,84,2022-10-28T16:35:27+00:00,2.6831028461456,4,Pure_Forward.csv,READVersionB.csv,"Read Pure F B","Read Pure F B",CHERRY,RED,Study2,F,164,71,Test,User,-,,Recall,Recall1,2552,red,100,1590,2054,1,1,,1
M202782656_VAS,9v9ke9u9jl,Nick_Dissertation_EX2_EP_MSU_TEXAS,1,85,2022-10-28T16:35:29+00:00,2.0917861461639,4,Pure_Forward.csv,READVersionB.csv,"Read Pure F B","Read Pure F B",ADJOURN,END,Study2,F,161,64,Test,User,-,,Recall,Recall1,1959,end,100,1190,1666,1,1,,1
M202782656_VAS,9v9ke9u9jl,Nick_Dissertation_EX2_EP_MSU_TEXAS,1,86,2022-10-28T16:35:32+00:00,3.0182230472565,4,Pure_Forward.csv,READVersionB.csv,"Read Pure F B","Read Pure F B",ATTIRE,CLOTHES,Study2,F,113,78,Test,User,-,,Recall,Recall1,2888,dress,33.333333333333,1546,2452,0,0,,1
M202782656_VAS,9v9ke9u9jl,Nick_Dissertation_EX2_EP_MSU_TEXAS,1,87,2022-10-28T16:35:33+00:00,1.2483258247375,4,Pure_Forward.csv,READVersionB.csv,"Read Pure F B","Read Pure F B",ENOUGH,FULL,Study2,F,96,86,Test,User,-,,Recall,Recall1,1104,,0,-1,-1,0,0,,1
M202782656_VAS,9v9ke9u9jl,Nick_Dissertation_EX2_EP_MSU_TEXAS,1,88,2022-10-28T16:35:36+00:00,2.4564151763916,4,Pure_Forward.csv,READVersionB.csv,"Read Pure F B","Read Pure F B",ATTORNEY,LAW,Study2,F,104,76,Test,User,-,,Recall,Recall1,2326,law,100,1625,2018,1,1,,1
M202782656_VAS,9v9ke9u9jl,Nick_Dissertation_EX2_EP_MSU_TEXAS,1,89,2022-10-28T16:35:38+00:00,2.4600088596344,4,Pure_Forward.csv,READVersionB.csv,"Read Pure F B","Read Pure F B",SCALP,HEAD,Study2,F,165,68,Test,User,-,,Recall,Recall1,2331,head,100,1087,1699,1,1,,1
M202782656_VAS,9v9ke9u9jl,Nick_Dissertation_EX2_EP_MSU_TEXAS,1,90,2022-10-28T16:35:41+00:00,2.3989560604095,4,Pure_Forward.csv,READVersionB.csv,"Read Pure F B","Read Pure F B",AFFECTION,LOVE,Study2,F,175,93,Test,User,-,,Recall,Recall1,2269,love,100,1306,1931,1,1,,1
M202782656_VAS,9v9ke9u9jl,Nick_Dissertation_EX2_EP_MSU_TEXAS,1,91,2022-10-28T16:35:45+00:00,3.8525750637054,4,Pure_Forward.csv,READVersionB.csv,"Read Pure F B","Read Pure F B",DIVISION,MATH,Study2,F,103,62,Test,User,-,,Recall,Recall1,3721,math,100,1327,3271,1,1,,1
M202782656_VAS,9v9ke9u9jl,Nick_Dissertation_EX2_EP_MSU_TEXAS,1,92,2022-10-28T16:35:48+00:00,3.0336439609528,4,Pure_Forward.csv,READVersionB.csv,"Read Pure F B","Read Pure F B",WASP,BUG,Study2,F,102,92,Test,User,-,,Recall,Recall1,2903,bug,100,1256,2392,1,1,,1
M202782656_VAS,9v9ke9u9jl,Nick_Dissertation_EX2_EP_MSU_TEXAS,1,93,2022-10-28T16:35:50+00:00,2.4792819023132,4,Pure_Forward.csv,READVersionB.csv,"Read Pure F B","Read Pure F B",SEIZE,TAKE,Study2,F,99,61,Test,User,-,,Recall,Recall1,2350,take,100,1252,1962,1,1,,1
M202782656_VAS,9v9ke9u9jl,Nick_Dissertation_EX2_EP_MSU_TEXAS,1,94,2022-10-28T16:35:52+00:00,1.9275221824646,4,Pure_Forward.csv,READVersionB.csv,"Read Pure F B","Read Pure F B",WORD,SENTENCE,Study2,F,101,66,Test,User,-,,Recall,Recall1,1795,,0,-1,-1,0,0,,1
M202782656_VAS,9v9ke9u9jl,Nick_Dissertation_EX2_EP_MSU_TEXAS,1,95,2022-10-28T16:36:05+00:00,12.564763784409,4,Pure_Forward.csv,READVersionB.csv,"Read Pure F B","Read Pure F B",,,,,,0,Instruct,-,10,"You will now be presented with a new set of word pairs. Please study each pair. Remember that your memory will be tested! Each pair will be displayed on the computer screen and will automatically advance to the next pair. Press ENTER when you are ready to begin.",Initial_Instruct,Instruct4,12422,,,-1,-1,,,,1
M202782656_VAS,9v9ke9u9jl,Nick_Dissertation_EX2_EP_MSU_TEXAS,1,96,2022-10-28T16:36:13+00:00,8.1384341716766,4,Pure_Forward.csv,READVersionB.csv,"Read Pure F B","Read Pure F B",TREES,GREEN,BUFFER1,Buffer,1,3,STUDY,8,8,,Study/JOL,BUFFER3,8001,,,-1,-1,,,,1
M202782656_VAS,9v9ke9u9jl,Nick_Dissertation_EX2_EP_MSU_TEXAS,1,97,2022-10-28T16:36:21+00:00,8.1361489295959,4,Pure_Forward.csv,READVersionB.csv,"Read Pure F B","Read Pure F B",SCARE,HIDE,BUFFER1,Buffer,4,6,STUDY,8,8,,Study/JOL,BUFFER3,8000,,,-1,-1,,,,1
M202782656_VAS,9v9ke9u9jl,Nick_Dissertation_EX2_EP_MSU_TEXAS,1,98,2022-10-28T16:36:29+00:00,8.1462581157684,4,Pure_Forward.csv,READVersionB.csv,"Read Pure F B","Read Pure F B",PEANUT,BUTTER,BUFFER1,Buffer,3,5,STUDY,8,8,,Study/JOL,BUFFER3,8000,,,-1,-1,,,,1
M202782656_VAS,9v9ke9u9jl,Nick_Dissertation_EX2_EP_MSU_TEXAS,1,99,2022-10-28T16:36:37+00:00,8.133131980896,4,Pure_Forward.csv,READVersionB.csv,"Read Pure F B","Read Pure F B",SPACE,JAM,BUFFER1,Buffer,5,4,STUDY,8,8,,Study/JOL,BUFFER3,8000,,,-1,-1,,,,1
M202782656_VAS,9v9ke9u9jl,Nick_Dissertation_EX2_EP_MSU_TEXAS,1,100,2022-10-28T16:36:45+00:00,8.1354420185089,4,Pure_Forward.csv,READVersionB.csv,"Read Pure F B","Read Pure F B",BASEBALL,CATCHER,BUFFER1,Buffer,2,2,STUDY,8,8,,Study/JOL,BUFFER3,8000,,,-1,-1,,,,1
M202782656_VAS,9v9ke9u9jl,Nick_Dissertation_EX2_EP_MSU_TEXAS,1,101,2022-10-28T16:36:53+00:00,8.1374309062958,4,Pure_Forward.csv,READVersionB.csv,"Read Pure F B","Read Pure F B",LEAGUE,BASEBALL,Study1,F,81,9,STUDY,8,8,,Study/JOL,"Study Phase2",8000,,,-1,-1,,,,1
M202782656_VAS,9v9ke9u9jl,Nick_Dissertation_EX2_EP_MSU_TEXAS,1,102,2022-10-28T16:37:02+00:00,8.1341218948364,4,Pure_Forward.csv,READVersionB.csv,"Read Pure F B","Read Pure F B",ACTRESS,STAR,Study1,F,70,26,STUDY,8,8,,Study/JOL,"Study Phase2",8000,,,-1,-1,,,,1
M202782656_VAS,9v9ke9u9jl,Nick_Dissertation_EX2_EP_MSU_TEXAS,1,103,2022-10-28T16:37:10+00:00,8.1318960189819,4,Pure_Forward.csv,READVersionB.csv,"Read Pure F B","Read Pure F B",SARDINE,FISH,Study1,F,80,42,STUDY,8,8,,Study/JOL,"Study Phase2",8001,,,-1,-1,,,,1
M202782656_VAS,9v9ke9u9jl,Nick_Dissertation_EX2_EP_MSU_TEXAS,1,104,2022-10-28T16:37:18+00:00,8.1360461711884,4,Pure_Forward.csv,READVersionB.csv,"Read Pure F B","Read Pure F B",TRUTHFUL,HONEST,Study1,F,83,19,STUDY,8,8,,Study/JOL,"Study Phase2",8000,,,-1,-1,,,,1
M202782656_VAS,9v9ke9u9jl,Nick_Dissertation_EX2_EP_MSU_TEXAS,1,105,2022-10-28T16:37:26+00:00,8.13525390625,4,Pure_Forward.csv,READVersionB.csv,"Read Pure F B","Read Pure F B",BANKER,MONEY,Study1,F,82,32,STUDY,8,8,,Study/JOL,"Study Phase2",8000,,,-1,-1,,,,1
M202782656_VAS,9v9ke9u9jl,Nick_Dissertation_EX2_EP_MSU_TEXAS,1,106,2022-10-28T16:37:34+00:00,8.1330230236053,4,Pure_Forward.csv,READVersionB.csv,"Read Pure F B","Read Pure F B",SWAN,BIRD,Study1,F,14,37,STUDY,8,8,,Study/JOL,"Study Phase2",8000,,,-1,-1,,,,1
M202782656_VAS,9v9ke9u9jl,Nick_Dissertation_EX2_EP_MSU_TEXAS,1,107,2022-10-28T16:37:42+00:00,8.1371459960938,4,Pure_Forward.csv,READVersionB.csv,"Read Pure F B","Read Pure F B",WINDSHIELD,CAR,Study1,F,67,12,STUDY,8,8,,Study/JOL,"Study Phase2",8001,,,-1,-1,,,,1
M202782656_VAS,9v9ke9u9jl,Nick_Dissertation_EX2_EP_MSU_TEXAS,1,108,2022-10-28T16:37:50+00:00,8.1404819488525,4,Pure_Forward.csv,READVersionB.csv,"Read Pure F B","Read Pure F B",ORCHID,FLOWER,Study1,F,24,40,STUDY,8,8,,Study/JOL,"Study Phase2",8000,,,-1,-1,,,,1
M202782656_VAS,9v9ke9u9jl,Nick_Dissertation_EX2_EP_MSU_TEXAS,1,109,2022-10-28T16:37:59+00:00,8.1333680152893,4,Pure_Forward.csv,READVersionB.csv,"Read Pure F B","Read Pure F B",DISCUSSION,TALK,Study1,F,21,46,STUDY,8,8,,Study/JOL,"Study Phase2",8000,,,-1,-1,,,,1
M202782656_VAS,9v9ke9u9jl,Nick_Dissertation_EX2_EP_MSU_TEXAS,1,110,2022-10-28T16:38:07+00:00,8.133367061615,4,Pure_Forward.csv,READVersionB.csv,"Read Pure F B","Read Pure F B",DELINQUENT,BAD,Study1,F,6,29,STUDY,8,8,,Study/JOL,"Study Phase2",8001,,,-1,-1,,,,1
M202782656_VAS,9v9ke9u9jl,Nick_Dissertation_EX2_EP_MSU_TEXAS,1,111,2022-10-28T16:38:15+00:00,8.1313669681549,4,Pure_Forward.csv,READVersionB.csv,"Read Pure F B","Read Pure F B",COFFIN,DEAD,Study1,F,78,21,STUDY,8,8,,Study/JOL,"Study Phase2",8000,,,-1,-1,,,,1
M202782656_VAS,9v9ke9u9jl,Nick_Dissertation_EX2_EP_MSU_TEXAS,1,112,2022-10-28T16:38:23+00:00,8.1303269863129,4,Pure_Forward.csv,READVersionB.csv,"Read Pure F B","Read Pure F B",THIMBLE,THREAD,Study1,F,71,27,STUDY,8,8,,Study/JOL,"Study Phase2",8000,,,-1,-1,,,,1
M202782656_VAS,9v9ke9u9jl,Nick_Dissertation_EX2_EP_MSU_TEXAS,1,113,2022-10-28T16:38:31+00:00,8.1303179264069,4,Pure_Forward.csv,READVersionB.csv,"Read Pure F B","Read Pure F B",NAP,SLEEP,Study1,F,84,38,STUDY,8,8,,Study/JOL,"Study Phase2",8000,,,-1,-1,,,,1
M202782656_VAS,9v9ke9u9jl,Nick_Dissertation_EX2_EP_MSU_TEXAS,1,114,2022-10-28T16:38:39+00:00,8.1331160068512,4,Pure_Forward.csv,READVersionB.csv,"Read Pure F B","Read Pure F B",FAVORITE,BEST,Study1,F,75,39,STUDY,8,8,,Study/JOL,"Study Phase2",8001,,,-1,-1,,,,1
M202782656_VAS,9v9ke9u9jl,Nick_Dissertation_EX2_EP_MSU_TEXAS,1,115,2022-10-28T16:38:47+00:00,8.1369931697845,4,Pure_Forward.csv,READVersionB.csv,"Read Pure F B","Read Pure F B",WAY,OUT,Study1,F,16,10,STUDY,8,8,,Study/JOL,"Study Phase2",8000,,,-1,-1,,,,1
M202782656_VAS,9v9ke9u9jl,Nick_Dissertation_EX2_EP_MSU_TEXAS,1,116,2022-10-28T16:38:56+00:00,8.1381947994232,4,Pure_Forward.csv,READVersionB.csv,"Read Pure F B","Read Pure F B",ROOT,PLANT,Study1,F,13,8,STUDY,8,8,,Study/JOL,"Study Phase2",8000,,,-1,-1,,,,1
M202782656_VAS,9v9ke9u9jl,Nick_Dissertation_EX2_EP_MSU_TEXAS,1,117,2022-10-28T16:39:04+00:00,8.1370711326599,4,Pure_Forward.csv,READVersionB.csv,"Read Pure F B","Read Pure F B",BRIDGE,WATER,Study1,F,18,25,STUDY,8,8,,Study/JOL,"Study Phase2",8000,,,-1,-1,,,,1
M202782656_VAS,9v9ke9u9jl,Nick_Dissertation_EX2_EP_MSU_TEXAS,1,118,2022-10-28T16:39:12+00:00,8.1330180168152,4,Pure_Forward.csv,READVersionB.csv,"Read Pure F B","Read Pure F B",AIRCRAFT,PLANE,Study1,F,79,11,STUDY,8,8,,Study/JOL,"Study Phase2",8001,,,-1,-1,,,,1
M202782656_VAS,9v9ke9u9jl,Nick_Dissertation_EX2_EP_MSU_TEXAS,1,119,2022-10-28T16:39:20+00:00,8.1331050395966,4,Pure_Forward.csv,READVersionB.csv,"Read Pure F B","Read Pure F B",BALLOON,POP,Study1,F,73,7,STUDY,8,8,,Study/JOL,"Study Phase2",8000,,,-1,-1,,,,1
M202782656_VAS,9v9ke9u9jl,Nick_Dissertation_EX2_EP_MSU_TEXAS,1,120,2022-10-28T16:39:28+00:00,8.1315658092499,4,Pure_Forward.csv,READVersionB.csv,"Read Pure F B","Read Pure F B",CHISEL,HAMMER,Study1,F,9,30,STUDY,8,8,,Study/JOL,"Study Phase2",8001,,,-1,-1,,,,1
M202782656_VAS,9v9ke9u9jl,Nick_Dissertation_EX2_EP_MSU_TEXAS,1,121,2022-10-28T16:39:36+00:00,8.1323411464691,4,Pure_Forward.csv,READVersionB.csv,"Read Pure F B","Read Pure F B",FLIP,TURN,Study1,F,66,15,STUDY,8,8,,Study/JOL,"Study Phase2",8001,,,-1,-1,,,,1
M202782656_VAS,9v9ke9u9jl,Nick_Dissertation_EX2_EP_MSU_TEXAS,1,122,2022-10-28T16:39:44+00:00,8.1525709629059,4,Pure_Forward.csv,READVersionB.csv,"Read Pure F B","Read Pure F B",VILLAIN,BAD,Study1,F,68,33,STUDY,8,8,,Study/JOL,"Study Phase2",8000,,,-1,-1,,,,1
M202782656_VAS,9v9ke9u9jl,Nick_Dissertation_EX2_EP_MSU_TEXAS,1,123,2022-10-28T16:39:52+00:00,8.1344339847565,4,Pure_Forward.csv,READVersionB.csv,"Read Pure F B","Read Pure F B",BITTER,COLD,Study1,F,12,22,STUDY,8,8,,Study/JOL,"Study Phase2",8000,,,-1,-1,,,,1
M202782656_VAS,9v9ke9u9jl,Nick_Dissertation_EX2_EP_MSU_TEXAS,1,124,2022-10-28T16:40:01+00:00,8.1373391151428,4,Pure_Forward.csv,READVersionB.csv,"Read Pure F B","Read Pure F B",WAGE,MONEY,Study1,F,8,44,STUDY,8,8,,Study/JOL,"Study Phase2",8001,,,-1,-1,,,,1
M202782656_VAS,9v9ke9u9jl,Nick_Dissertation_EX2_EP_MSU_TEXAS,1,125,2022-10-28T16:40:09+00:00,8.134917974472,4,Pure_Forward.csv,READVersionB.csv,"Read Pure F B","Read Pure F B",EDITOR,NEWS,Study1,F,10,36,STUDY,8,8,,Study/JOL,"Study Phase2",8000,,,-1,-1,,,,1
M202782656_VAS,9v9ke9u9jl,Nick_Dissertation_EX2_EP_MSU_TEXAS,1,126,2022-10-28T16:40:17+00:00,8.1378498077393,4,Pure_Forward.csv,READVersionB.csv,"Read Pure F B","Read Pure F B",PANTHER,CAT,Study1,F,76,28,STUDY,8,8,,Study/JOL,"Study Phase2",8001,,,-1,-1,,,,1
M202782656_VAS,9v9ke9u9jl,Nick_Dissertation_EX2_EP_MSU_TEXAS,1,127,2022-10-28T16:40:25+00:00,8.1317501068115,4,Pure_Forward.csv,READVersionB.csv,"Read Pure F B","Read Pure F B",BRAWL,FIGHT,Study1,F,85,17,STUDY,8,8,,Study/JOL,"Study Phase2",8000,,,-1,-1,,,,1
M202782656_VAS,9v9ke9u9jl,Nick_Dissertation_EX2_EP_MSU_TEXAS,1,128,2022-10-28T16:40:33+00:00,8.1677939891815,4,Pure_Forward.csv,READVersionB.csv,"Read Pure F B","Read Pure F B",STRAWBERRY,FRUIT,Study1,F,74,45,STUDY,8,8,,Study/JOL,"Study Phase2",8002,,,-1,-1,,,,1
M202782656_VAS,9v9ke9u9jl,Nick_Dissertation_EX2_EP_MSU_TEXAS,1,129,2022-10-28T16:40:41+00:00,8.1397840976715,4,Pure_Forward.csv,READVersionB.csv,"Read Pure F B","Read Pure F B",BREAKABLE,GLASS,Study1,F,77,18,STUDY,8,8,,Study/JOL,"Study Phase2",8001,,,-1,-1,,,,1
M202782656_VAS,9v9ke9u9jl,Nick_Dissertation_EX2_EP_MSU_TEXAS,1,130,2022-10-28T16:40:49+00:00,8.1366608142853,4,Pure_Forward.csv,READVersionB.csv,"Read Pure F B","Read Pure F B",HYGIENE,CLEAN,Study1,F,17,41,STUDY,8,8,,Study/JOL,"Study Phase2",8001,,,-1,-1,,,,1
M202782656_VAS,9v9ke9u9jl,Nick_Dissertation_EX2_EP_MSU_TEXAS,1,131,2022-10-28T16:40:58+00:00,8.1353361606598,4,Pure_Forward.csv,READVersionB.csv,"Read Pure F B","Read Pure F B",HERD,COW,Study1,F,22,13,STUDY,8,8,,Study/JOL,"Study Phase2",8000,,,-1,-1,,,,1
M202782656_VAS,9v9ke9u9jl,Nick_Dissertation_EX2_EP_MSU_TEXAS,1,132,2022-10-28T16:41:06+00:00,8.1349499225616,4,Pure_Forward.csv,READVersionB.csv,"Read Pure F B","Read Pure F B",GEOLOGY,ROCK,Study1,F,19,35,STUDY,8,8,,Study/JOL,"Study Phase2",8001,,,-1,-1,,,,1
M202782656_VAS,9v9ke9u9jl,Nick_Dissertation_EX2_EP_MSU_TEXAS,1,133,2022-10-28T16:41:14+00:00,8.1344449520111,4,Pure_Forward.csv,READVersionB.csv,"Read Pure F B","Read Pure F B",REVOLUTION,WAR,Study1,F,20,43,STUDY,8,8,,Study/JOL,"Study Phase2",8000,,,-1,-1,,,,1
M202782656_VAS,9v9ke9u9jl,Nick_Dissertation_EX2_EP_MSU_TEXAS,1,134,2022-10-28T16:41:22+00:00,8.1340470314026,4,Pure_Forward.csv,READVersionB.csv,"Read Pure F B","Read Pure F B",HORNET,STING,Study1,F,11,31,STUDY,8,8,,Study/JOL,"Study Phase2",8000,,,-1,-1,,,,1
M202782656_VAS,9v9ke9u9jl,Nick_Dissertation_EX2_EP_MSU_TEXAS,1,135,2022-10-28T16:41:30+00:00,8.1383600234985,4,Pure_Forward.csv,READVersionB.csv,"Read Pure F B","Read Pure F B",DIGESTION,STOMACH,Study1,F,7,14,STUDY,8,8,,Study/JOL,"Study Phase2",8001,,,-1,-1,,,,1
M202782656_VAS,9v9ke9u9jl,Nick_Dissertation_EX2_EP_MSU_TEXAS,1,136,2022-10-28T16:41:38+00:00,8.1351311206818,4,Pure_Forward.csv,READVersionB.csv,"Read Pure F B","Read Pure F B",TUNA,FISH,Study1,F,25,24,STUDY,8,8,,Study/JOL,"Study Phase2",8001,,,-1,-1,,,,1
M202782656_VAS,9v9ke9u9jl,Nick_Dissertation_EX2_EP_MSU_TEXAS,1,137,2022-10-28T16:41:46+00:00,8.1338458061218,4,Pure_Forward.csv,READVersionB.csv,"Read Pure F B","Read Pure F B",REVENGE,EVEN,Study1,F,72,16,STUDY,8,8,,Study/JOL,"Study Phase2",8000,,,-1,-1,,,,1
M202782656_VAS,9v9ke9u9jl,Nick_Dissertation_EX2_EP_MSU_TEXAS,1,138,2022-10-28T16:41:55+00:00,8.138993024826,4,Pure_Forward.csv,READVersionB.csv,"Read Pure F B","Read Pure F B",PENGUIN,BIRD,Study1,F,69,20,STUDY,8,8,,Study/JOL,"Study Phase2",8000,,,-1,-1,,,,1
M202782656_VAS,9v9ke9u9jl,Nick_Dissertation_EX2_EP_MSU_TEXAS,1,139,2022-10-28T16:42:03+00:00,8.1359901428223,4,Pure_Forward.csv,READVersionB.csv,"Read Pure F B","Read Pure F B",CREDIT,CARD,Study1,F,23,34,STUDY,8,8,,Study/JOL,"Study Phase2",8000,,,-1,-1,,,,1
M202782656_VAS,9v9ke9u9jl,Nick_Dissertation_EX2_EP_MSU_TEXAS,1,140,2022-10-28T16:42:11+00:00,8.1340038776398,4,Pure_Forward.csv,READVersionB.csv,"Read Pure F B","Read Pure F B",PAW,DOG,Study1,F,15,23,STUDY,8,8,,Study/JOL,"Study Phase2",8000,,,-1,-1,,,,1
M202782656_VAS,9v9ke9u9jl,Nick_Dissertation_EX2_EP_MSU_TEXAS,1,141,2022-10-28T16:42:19+00:00,8.1353261470795,4,Pure_Forward.csv,READVersionB.csv,"Read Pure F B","Read Pure F B",SHERRIF,POLICE,BUFFER2,Buffer,87,47,STUDY,8,8,,Study/JOL,BUFFER4,8000,,,-1,-1,,,,1
M202782656_VAS,9v9ke9u9jl,Nick_Dissertation_EX2_EP_MSU_TEXAS,1,142,2022-10-28T16:42:27+00:00,8.1335818767548,4,Pure_Forward.csv,READVersionB.csv,"Read Pure F B","Read Pure F B",GEESE,GOOSE,BUFFER2,Buffer,86,51,STUDY,8,8,,Study/JOL,BUFFER4,8001,,,-1,-1,,,,1
M202782656_VAS,9v9ke9u9jl,Nick_Dissertation_EX2_EP_MSU_TEXAS,1,143,2022-10-28T16:42:35+00:00,8.1433761119843,4,Pure_Forward.csv,READVersionB.csv,"Read Pure F B","Read Pure F B",THING,STUFF,BUFFER2,Buffer,90,49,STUDY,8,8,,Study/JOL,BUFFER4,8001,,,-1,-1,,,,1
M202782656_VAS,9v9ke9u9jl,Nick_Dissertation_EX2_EP_MSU_TEXAS,1,144,2022-10-28T16:42:43+00:00,8.1355049610138,4,Pure_Forward.csv,READVersionB.csv,"Read Pure F B","Read Pure F B",MOON,SPACE,BUFFER2,Buffer,89,50,STUDY,8,8,,Study/JOL,BUFFER4,8001,,,-1,-1,,,,1
M202782656_VAS,9v9ke9u9jl,Nick_Dissertation_EX2_EP_MSU_TEXAS,1,145,2022-10-28T16:42:51+00:00,8.1330528259277,4,Pure_Forward.csv,READVersionB.csv,"Read Pure F B","Read Pure F B",MALT,CHOCOLATE,BUFFER2,Buffer,88,48,STUDY,8,8,,Study/JOL,BUFFER4,8001,,,-1,-1,,,,1
M202782656_VAS,9v9ke9u9jl,Nick_Dissertation_EX2_EP_MSU_TEXAS,1,146,2022-10-28T16:42:54+00:00,2.2147221565247,4,Pure_Forward.csv,READVersionB.csv,"Read Pure F B","Read Pure F B",,,,,,0,Instruct,User,-,"You have completed this section. Please press Enter.",Filler_Instruction,Instruct5,2083,,,-1,-1,,,,1
M202782656_VAS,9v9ke9u9jl,Nick_Dissertation_EX2_EP_MSU_TEXAS,1,147,2022-10-28T16:44:54+00:00,120.36687994003,4,Pure_Forward.csv,READVersionB.csv,"Read Pure F B","Read Pure F B",,,,,,0,FreeRecall,120,120,"Please list the 50 US states in reverse alphabetical order (z - a). The task will automatically advance to the next screen after two minutes.",,Filler2,120002,"washington virginia texas tennessee south dakota south carolina pennsylvania oregon north dakota north carolina new york new jersey ",0,14404,113358,0,0,,1
M202782656_VAS,9v9ke9u9jl,Nick_Dissertation_EX2_EP_MSU_TEXAS,1,148,2022-10-28T16:45:07+00:00,13.150147914886,4,Pure_Forward.csv,READVersionB.csv,"Read Pure F B","Read Pure F B",,,,,,0,Instruct,-,10,"You will now be presented with the first word from each of the previously studied item pairs. Please type the missing word. If you do not know the word, you may guess or press Enter to skip forward to the next pair.",,Instruct6,13004,,,-1,-1,,,,1
M202782656_VAS,9v9ke9u9jl,Nick_Dissertation_EX2_EP_MSU_TEXAS,1,149,2022-10-28T16:45:10+00:00,3.2715840339661,4,Pure_Forward.csv,READVersionB.csv,"Read Pure F B","Read Pure F B",AIRCRAFT,PLANE,Study1,F,79,11,Test,User,-,,Recall,Recall2,3134,plane,100,1846,2890,1,1,,1
M202782656_VAS,9v9ke9u9jl,Nick_Dissertation_EX2_EP_MSU_TEXAS,1,150,2022-10-28T16:45:13+00:00,2.2139730453491,4,Pure_Forward.csv,READVersionB.csv,"Read Pure F B","Read Pure F B",BANKER,MONEY,Study1,F,82,32,Test,User,-,,Recall,Recall2,2059,,0,-1,-1,0,0,,1
M202782656_VAS,9v9ke9u9jl,Nick_Dissertation_EX2_EP_MSU_TEXAS,1,151,2022-10-28T16:45:18+00:00,5.1245019435883,4,Pure_Forward.csv,READVersionB.csv,"Read Pure F B","Read Pure F B",COFFIN,DEAD,Study1,F,78,21,Test,User,-,,Recall,Recall2,4950,dead,100,2553,3449,1,1,,1
M202782656_VAS,9v9ke9u9jl,Nick_Dissertation_EX2_EP_MSU_TEXAS,1,152,2022-10-28T16:45:20+00:00,2.313383102417,4,Pure_Forward.csv,READVersionB.csv,"Read Pure F B","Read Pure F B",DELINQUENT,BAD,Study1,F,6,29,Test,User,-,,Recall,Recall2,2181,bad,100,1509,1881,1,1,,1
M202782656_VAS,9v9ke9u9jl,Nick_Dissertation_EX2_EP_MSU_TEXAS,1,153,2022-10-28T16:45:23+00:00,2.5813419818878,4,Pure_Forward.csv,READVersionB.csv,"Read Pure F B","Read Pure F B",CREDIT,CARD,Study1,F,23,34,Test,User,-,,Recall,Recall2,2453,card,100,1267,2148,1,1,,1
M202782656_VAS,9v9ke9u9jl,Nick_Dissertation_EX2_EP_MSU_TEXAS,1,154,2022-10-28T16:45:25+00:00,1.9960858821869,4,Pure_Forward.csv,READVersionB.csv,"Read Pure F B","Read Pure F B",PAW,DOG,Study1,F,15,23,Test,User,-,,Recall,Recall2,1863,dog,100,862,1501,1,1,,1
M202782656_VAS,9v9ke9u9jl,Nick_Dissertation_EX2_EP_MSU_TEXAS,1,155,2022-10-28T16:45:27+00:00,2.2196040153503,4,Pure_Forward.csv,READVersionB.csv,"Read Pure F B","Read Pure F B",GEOLOGY,ROCK,Study1,F,19,35,Test,User,-,,Recall,Recall2,2090,rock,100,1145,1827,1,1,,1
M202782656_VAS,9v9ke9u9jl,Nick_Dissertation_EX2_EP_MSU_TEXAS,1,156,2022-10-28T16:45:28+00:00,1.1502981185913,4,Pure_Forward.csv,READVersionB.csv,"Read Pure F B","Read Pure F B",BRAWL,FIGHT,Study1,F,85,17,Test,User,-,,Recall,Recall2,1020,,0,-1,-1,0,0,,1
M202782656_VAS,9v9ke9u9jl,Nick_Dissertation_EX2_EP_MSU_TEXAS,1,157,2022-10-28T16:45:29+00:00,1.3346540927887,4,Pure_Forward.csv,READVersionB.csv,"Read Pure F B","Read Pure F B",PANTHER,CAT,Study1,F,76,28,Test,User,-,,Recall,Recall2,1203,,0,-1,-1,0,0,,1
M202782656_VAS,9v9ke9u9jl,Nick_Dissertation_EX2_EP_MSU_TEXAS,1,158,2022-10-28T16:45:32+00:00,2.0913619995117,4,Pure_Forward.csv,READVersionB.csv,"Read Pure F B","Read Pure F B",CHISEL,HAMMER,Study1,F,9,30,Test,User,-,,Recall,Recall2,1960,hammer,100,1155,1829,1,1,,1
M202782656_VAS,9v9ke9u9jl,Nick_Dissertation_EX2_EP_MSU_TEXAS,1,159,2022-10-28T16:45:34+00:00,2.6099138259888,4,Pure_Forward.csv,READVersionB.csv,"Read Pure F B","Read Pure F B",TUNA,FISH,Study1,F,25,24,Test,User,-,,Recall,Recall2,2480,fish,100,1238,2026,1,1,,1
M202782656_VAS,9v9ke9u9jl,Nick_Dissertation_EX2_EP_MSU_TEXAS,1,160,2022-10-28T16:45:36+00:00,1.4118130207062,4,Pure_Forward.csv,READVersionB.csv,"Read Pure F B","Read Pure F B",TRUTHFUL,HONEST,Study1,F,83,19,Test,User,-,,Recall,Recall2,1282,,0,-1,-1,0,0,,1
M202782656_VAS,9v9ke9u9jl,Nick_Dissertation_EX2_EP_MSU_TEXAS,1,161,2022-10-28T16:45:38+00:00,2.387344121933,4,Pure_Forward.csv,READVersionB.csv,"Read Pure F B","Read Pure F B",PENGUIN,BIRD,Study1,F,69,20,Test,User,-,,Recall,Recall2,2256,bird,100,1129,2078,1,1,,1
M202782656_VAS,9v9ke9u9jl,Nick_Dissertation_EX2_EP_MSU_TEXAS,1,162,2022-10-28T16:45:39+00:00,1.4089059829712,4,Pure_Forward.csv,READVersionB.csv,"Read Pure F B","Read Pure F B",BALLOON,POP,Study1,F,73,7,Test,User,-,,Recall,Recall2,1273,,0,-1,-1,0,0,,1
M202782656_VAS,9v9ke9u9jl,Nick_Dissertation_EX2_EP_MSU_TEXAS,1,163,2022-10-28T16:45:42+00:00,2.4754550457001,4,Pure_Forward.csv,READVersionB.csv,"Read Pure F B","Read Pure F B",FAVORITE,BEST,Study1,F,75,39,Test,User,-,,Recall,Recall2,2338,best,100,1400,2019,1,1,,1
M202782656_VAS,9v9ke9u9jl,Nick_Dissertation_EX2_EP_MSU_TEXAS,1,164,2022-10-28T16:45:45+00:00,2.8025867938995,4,Pure_Forward.csv,READVersionB.csv,"Read Pure F B","Read Pure F B",SWAN,BIRD,Study1,F,14,37,Test,User,-,,Recall,Recall2,2672,bird,100,1420,2392,1,1,,1
M202782656_VAS,9v9ke9u9jl,Nick_Dissertation_EX2_EP_MSU_TEXAS,1,165,2022-10-28T16:45:48+00:00,3.3611600399017,4,Pure_Forward.csv,READVersionB.csv,"Read Pure F B","Read Pure F B",BREAKABLE,GLASS,Study1,F,77,18,Test,User,-,,Recall,Recall2,3223,fragile,16.666666666667,1696,2989,0,0,,1
M202782656_VAS,9v9ke9u9jl,Nick_Dissertation_EX2_EP_MSU_TEXAS,1,166,2022-10-28T16:45:50+00:00,2.4336471557617,4,Pure_Forward.csv,READVersionB.csv,"Read Pure F B","Read Pure F B",SARDINE,FISH,Study1,F,80,42,Test,User,-,,Recall,Recall2,2297,fish,100,1225,1780,1,1,,1
M202782656_VAS,9v9ke9u9jl,Nick_Dissertation_EX2_EP_MSU_TEXAS,1,167,2022-10-28T16:45:53+00:00,2.6052479743958,4,Pure_Forward.csv,READVersionB.csv,"Read Pure F B","Read Pure F B",REVOLUTION,WAR,Study1,F,20,43,Test,User,-,,Recall,Recall2,2473,new,33.333333333333,1625,1996,0,0,,1
M202782656_VAS,9v9ke9u9jl,Nick_Dissertation_EX2_EP_MSU_TEXAS,1,168,2022-10-28T16:46:02+00:00,8.7867529392242,4,Pure_Forward.csv,READVersionB.csv,"Read Pure F B","Read Pure F B",REVENGE,EVEN,Study1,F,72,16,Test,User,-,,Recall,Recall2,8637,even,100,5332,7916,1,1,,1
M202782656_VAS,9v9ke9u9jl,Nick_Dissertation_EX2_EP_MSU_TEXAS,1,169,2022-10-28T16:46:04+00:00,2.431783914566,4,Pure_Forward.csv,READVersionB.csv,"Read Pure F B","Read Pure F B",ACTRESS,STAR,Study1,F,70,26,Test,User,-,,Recall,Recall2,2288,star,100,1015,1888,1,1,,1
M202782656_VAS,9v9ke9u9jl,Nick_Dissertation_EX2_EP_MSU_TEXAS,1,170,2022-10-28T16:46:07+00:00,3.0815830230713,4,Pure_Forward.csv,READVersionB.csv,"Read Pure F B","Read Pure F B",STRAWBERRY,FRUIT,Study1,F,74,45,Test,User,-,,Recall,Recall2,2951,,0,-1,-1,0,0,,1
M202782656_VAS,9v9ke9u9jl,Nick_Dissertation_EX2_EP_MSU_TEXAS,1,171,2022-10-28T16:46:11+00:00,3.2684111595154,4,Pure_Forward.csv,READVersionB.csv,"Read Pure F B","Read Pure F B",DIGESTION,STOMACH,Study1,F,7,14,Test,User,-,,Recall,Recall2,3137,stomach,100,1269,2687,1,1,,1
M202782656_VAS,9v9ke9u9jl,Nick_Dissertation_EX2_EP_MSU_TEXAS,1,172,2022-10-28T16:46:13+00:00,2.7115018367767,4,Pure_Forward.csv,READVersionB.csv,"Read Pure F B","Read Pure F B",DISCUSSION,TALK,Study1,F,21,46,Test,User,-,,Recall,Recall2,2577,talk,100,1588,2263,1,1,,1
M202782656_VAS,9v9ke9u9jl,Nick_Dissertation_EX2_EP_MSU_TEXAS,1,173,2022-10-28T16:46:16+00:00,2.7684049606323,4,Pure_Forward.csv,READVersionB.csv,"Read Pure F B","Read Pure F B",HYGIENE,CLEAN,Study1,F,17,41,Test,User,-,,Recall,Recall2,2632,clean,100,1501,2181,1,1,,1
M202782656_VAS,9v9ke9u9jl,Nick_Dissertation_EX2_EP_MSU_TEXAS,1,174,2022-10-28T16:46:19+00:00,2.7532901763916,4,Pure_Forward.csv,READVersionB.csv,"Read Pure F B","Read Pure F B",ORCHID,FLOWER,Study1,F,24,40,Test,User,-,,Recall,Recall2,2621,flower,100,1304,2265,1,1,,1
M202782656_VAS,9v9ke9u9jl,Nick_Dissertation_EX2_EP_MSU_TEXAS,1,175,2022-10-28T16:46:21+00:00,2.4392108917236,4,Pure_Forward.csv,READVersionB.csv,"Read Pure F B","Read Pure F B",ROOT,PLANT,Study1,F,13,8,Test,User,-,,Recall,Recall2,2305,,0,-1,-1,0,0,,1
M202782656_VAS,9v9ke9u9jl,Nick_Dissertation_EX2_EP_MSU_TEXAS,1,176,2022-10-28T16:46:25+00:00,3.8726401329041,4,Pure_Forward.csv,READVersionB.csv,"Read Pure F B","Read Pure F B",WINDSHIELD,CAR,Study1,F,67,12,Test,User,-,,Recall,Recall2,3739,wiper,25,2009,3016,0,0,,1
M202782656_VAS,9v9ke9u9jl,Nick_Dissertation_EX2_EP_MSU_TEXAS,1,177,2022-10-28T16:46:27+00:00,2.2181348800659,4,Pure_Forward.csv,READVersionB.csv,"Read Pure F B","Read Pure F B",WAGE,MONEY,Study1,F,8,44,Test,User,-,,Recall,Recall2,2082,,0,-1,-1,0,0,,1
M202782656_VAS,9v9ke9u9jl,Nick_Dissertation_EX2_EP_MSU_TEXAS,1,178,2022-10-28T16:46:28+00:00,1.1558151245117,4,Pure_Forward.csv,READVersionB.csv,"Read Pure F B","Read Pure F B",BITTER,COLD,Study1,F,12,22,Test,User,-,,Recall,Recall2,1019,,0,-1,-1,0,0,,1
M202782656_VAS,9v9ke9u9jl,Nick_Dissertation_EX2_EP_MSU_TEXAS,1,179,2022-10-28T16:46:31+00:00,2.2567598819733,4,Pure_Forward.csv,READVersionB.csv,"Read Pure F B","Read Pure F B",FLIP,TURN,Study1,F,66,15,Test,User,-,,Recall,Recall2,2124,turn,100,1203,1769,1,1,,1
M202782656_VAS,9v9ke9u9jl,Nick_Dissertation_EX2_EP_MSU_TEXAS,1,180,2022-10-28T16:46:32+00:00,1.3814499378204,4,Pure_Forward.csv,READVersionB.csv,"Read Pure F B","Read Pure F B",BRIDGE,WATER,Study1,F,18,25,Test,User,-,,Recall,Recall2,1243,,0,-1,-1,0,0,,1
M202782656_VAS,9v9ke9u9jl,Nick_Dissertation_EX2_EP_MSU_TEXAS,1,181,2022-10-28T16:46:36+00:00,3.420312166214,4,Pure_Forward.csv,READVersionB.csv,"Read Pure F B","Read Pure F B",THIMBLE,THREAD,Study1,F,71,27,Test,User,-,,Recall,Recall2,3286,thread,100,1969,2988,1,1,,1
M202782656_VAS,9v9ke9u9jl,Nick_Dissertation_EX2_EP_MSU_TEXAS,1,182,2022-10-28T16:46:40+00:00,4.0260519981384,4,Pure_Forward.csv,READVersionB.csv,"Read Pure F B","Read Pure F B",HORNET,STING,Study1,F,11,31,Test,User,-,,Recall,Recall2,3889,sting,100,2543,3648,1,1,,1
M202782656_VAS,9v9ke9u9jl,Nick_Dissertation_EX2_EP_MSU_TEXAS,1,183,2022-10-28T16:46:41+00:00,1.2396697998047,4,Pure_Forward.csv,READVersionB.csv,"Read Pure F B","Read Pure F B",HERD,COW,Study1,F,22,13,Test,User,-,,Recall,Recall2,1103,,0,-1,-1,0,0,,1
M202782656_VAS,9v9ke9u9jl,Nick_Dissertation_EX2_EP_MSU_TEXAS,1,184,2022-10-28T16:46:42+00:00,1.2045500278473,4,Pure_Forward.csv,READVersionB.csv,"Read Pure F B","Read Pure F B",NAP,SLEEP,Study1,F,84,38,Test,User,-,,Recall,Recall2,1062,,0,-1,-1,0,0,,1
M202782656_VAS,9v9ke9u9jl,Nick_Dissertation_EX2_EP_MSU_TEXAS,1,185,2022-10-28T16:46:43+00:00,1.0603280067444,4,Pure_Forward.csv,READVersionB.csv,"Read Pure F B","Read Pure F B",WAY,OUT,Study1,F,16,10,Test,User,-,,Recall,Recall2,925,,0,-1,-1,0,0,,1
M202782656_VAS,9v9ke9u9jl,Nick_Dissertation_EX2_EP_MSU_TEXAS,1,186,2022-10-28T16:46:45+00:00,2.2278649806976,4,Pure_Forward.csv,READVersionB.csv,"Read Pure F B","Read Pure F B",EDITOR,NEWS,Study1,F,10,36,Test,User,-,,Recall,Recall2,2092,,0,-1,-1,0,0,,1
M202782656_VAS,9v9ke9u9jl,Nick_Dissertation_EX2_EP_MSU_TEXAS,1,187,2022-10-28T16:46:50+00:00,4.2804231643677,4,Pure_Forward.csv,READVersionB.csv,"Read Pure F B","Read Pure F B",LEAGUE,BASEBALL,Study1,F,81,9,Test,User,-,,Recall,Recall2,4146,baseball,100,1599,3760,1,1,,1
M202782656_VAS,9v9ke9u9jl,Nick_Dissertation_EX2_EP_MSU_TEXAS,1,188,2022-10-28T16:46:53+00:00,3.3200750350952,4,Pure_Forward.csv,READVersionB.csv,"Read Pure F B","Read Pure F B",VILLAIN,BAD,Study1,F,68,33,Test,User,-,,Recall,Recall2,3187,evil,0,2058,2872,0,0,,1
M202782656_VAS,9v9ke9u9jl,Nick_Dissertation_EX2_EP_MSU_TEXAS,1,189,2022-10-28T16:46:54+00:00,0.91931676864624,4,Pure_Forward.csv,READVersionB.csv,"Read Pure F B","Read Pure F B",,,,,,0,Instruct,User,-,"You have completed this section. Please press Enter.",,Instruct7,786,,,-1,-1,,,,1
M202782656_VAS,9v9ke9u9jl,Nick_Dissertation_EX2_EP_MSU_TEXAS,1,190,2022-10-28T16:46:56+00:00,2.0030541419983,4,Pure_Forward.csv,READVersionB.csv,"Read Pure F B","Read Pure F B",,,,,,0,Instruct,User,-,"The following screen will ask you a few questions abour your experience today. You must complete these questions to receive credit.",,Instruct8,1869,,,-1,-1,,,,1
